timestamp,accel_x,accel_y,accel_z,gyro_x,gyro_y,gyro_z
2824784,9.9264,0.6608,0.51,-0.0845,0.0296,-0.0051
2824808,9.9359,0.6608,0.5555,-0.0847,0.0288,-0.0056
2824832,9.9311,0.6488,0.5363,-0.0847,0.0293,-0.0051
2824856,9.924,0.6153,0.5124,-0.0834,0.0285,-0.0048
2824880,9.9072,0.6369,0.5459,-0.0839,0.0288,-0.0059
2824904,9.912,0.6752,0.5315,-0.0837,0.0288,-0.0061
2824928,9.9096,0.6512,0.5339,-0.0842,0.0288,-0.0051
2824952,9.9192,0.6273,0.5243,-0.0842,0.029,-0.0048
2824976,9.9359,0.6321,0.5267,-0.085,0.0296,-0.0059
2825000,9.924,0.6416,0.5411,-0.0842,0.0293,-0.0051
2825024,9.9575,0.6416,0.5818,-0.0842,0.0381,-0.0056
2825048,9.9288,0.656,0.5363,-0.0845,0.0336,-0.0059
2825072,9.9096,0.6416,0.5387,-0.0842,0.033,-0.0051
2825096,9.8952,0.6177,0.486,-0.085,0.0229,-0.0048
2825120,9.8881,0.6009,0.5291,-0.0842,0.0445,-0.0064
2825144,9.8689,0.6393,0.5124,-0.0845,0.0602,-0.0064
2825168,9.7851,0.6512,0.4429,-0.0853,0.1404,-0.004
2825192,10.556,-0.2705,0.3759,-0.1687,0.1306,-0.0099
2825216,8.825,0.9218,-0.1269,-0.0645,-0.3211,0.0117
2825240,10.0724,0.7374,0.4381,-0.1434,-0.0059,0.0053
2825264,10.1514,0.7973,0.2274,-0.0373,0.04,0.0088
2825288,9.8833,0.3831,0.5555,-0.0605,0.0317,0.0077
2825312,10.082,0.7949,0.8619,-0.0887,-0.012,-0.0069
2825336,10.4363,0.6871,1.2809,-0.0496,-0.0624,-0.2963
2825360,9.7468,0.9122,0.3903,0.0695,0.0139,-0.5097
2825384,9.5385,0.4908,0.3855,0.0911,0.1607,-0.4964
2825408,10.2185,0.7135,0.7183,-0.0211,0.4159,-0.6387
2825432,10.3549,1.1851,0.5387,-0.0733,0.3978,-0.8633
2825456,10.5321,1.415,0.8332,-0.0597,-0.0035,-1.2247
2825480,9.742,1.4341,1.1612,-0.0613,-0.1796,-1.4184
2825504,9.8521,1.7813,0.9984,-0.1258,-0.0522,-1.4869
2825528,10.6255,2.557,0.5435,-0.1487,0.0701,-1.4019
2825552,11.4539,3.3495,0.3567,-0.093,-0.0474,-1.0547
2825576,11.212,3.6679,0.4094,0.029,-0.2886,-0.6534
2825600,10.0533,3.3758,0.0982,0.0005,-0.291,-0.3738
2825624,9.0285,2.8683,0.7302,-0.1239,0.0472,-0.3171
2825648,9.0549,2.9066,0.6943,-0.3027,0.3371,-0.5007
2825672,9.4571,3.2777,0.5339,-0.2848,0.3818,-0.7727
2825696,9.6223,3.5338,-0.012,-0.012,0.3741,-0.7834
2825720,9.2177,3.4381,0.2705,0.0962,0.4399,-0.6379
2825744,9.481,2.8204,1.3408,-0.1138,0.4879,-0.8727
2825768,9.2177,3.5674,1.2378,-0.4799,0.526,-1.0842
2825792,10.2041,4.3239,1.2785,-0.8018,0.129,-1.3422
2825816,9.9742,4.7716,0.1508,-0.5596,0.2172,-0.8895
2825840,10.2208,3.0047,1.0151,-0.2198,0.0498,-0.708
2825864,9.244,4.4819,0.929,-0.0101,0.0133,-0.4141
2825888,8.2696,5.3151,1.1588,0.1847,0.0805,-0.3635
2825912,7.8745,3.5961,2.6049,0.0248,0.0416,-1.1938
2825936,9.0094,5.2505,1.312,-0.5196,-0.308,-2.0214
2825960,9.3182,6.0454,-0.1628,-0.7738,-0.2502,-1.3387
2825984,8.497,6.3207,0.0048,-0.2244,-0.1639,-0.6976
2826008,7.5034,5.7916,1.5227,0.0357,-0.0203,-0.4895
2826032,6.4165,5.0949,2.4684,-0.1442,0.0592,-0.7687
2826056,5.8897,5.4109,2.4445,-0.478,0.1847,-1.3059
2826080,6.7277,6.1004,0.9218,-0.6347,0.311,-1.688
2826104,11.8705,7.1706,-1.087,-0.5129,-0.3853,-1.1972
2826128,6.9121,7.276,0.2298,-0.1628,-0.1116,0.2281
2826152,5.1834,5.3702,1.3144,-0.2046,0.1071,0.498
2826176,4.8483,4.9799,3.1891,-0.7466,0.0083,-0.2822
2826200,6.3925,5.7604,2.2577,-1.3174,-0.474,-1.2111
2826224,6.6295,7.3837,0.0024,-1.3995,-0.34,-1.2279
2826248,6.8043,8.1977,0.079,-1.0531,0.267,-0.3986
2826272,6.936,6.1531,1.719,-0.8535,0.5188,0.0504
2826296,6.3686,6.1866,2.8683,-1.0608,0.2763,0.1575
2826320,5.9352,5.6336,4.1731,-1.4474,-0.2872,0.1095
2826344,6.608,5.7509,4.4484,-1.9654,-1.1751,0.02
2826368,6.6535,5.1739,3.2825,-2.2481,-2.2154,-0.048
2826392,5.703,6.7636,0.814,-1.5463,-2.1325,-0.64
2826416,7.434,6.3087,2.739,-0.7666,-1.5588,-0.5359
2826440,8.4156,5.9903,3.2154,-0.9374,-1.5399,0.0871
2826464,7.5465,8.1427,0.8595,-0.9659,-1.2806,0.5446
2826488,7.5178,5.2337,3.2465,-0.9124,-0.0232,2.2162
2826512,6.9647,5.8778,2.5259,-0.7962,-0.2446,1.3725
2826536,8.1331,5.3439,3.3471,-0.6939,-0.2718,1.1245
2826560,7.7237,5.6647,3.0478,-0.6211,-0.3685,1.1594
2826584,6.9791,4.9943,2.6839,-0.4772,-0.2622,0.8953
2826608,7.5537,5.2601,3.1747,-0.2142,-0.0767,0.5255
2826632,7.9104,4.2306,3.134,-0.0442,-0.0951,0.3483
2826656,8.4827,4.3958,2.6145,-0.1015,-0.1231,0.1948
2826680,7.3957,3.79,3.0502,-0.2419,-0.1815,0.2435
2826704,8.0254,5.1356,2.2865,-0.283,-0.1354,0.3501
2826728,7.92,4.4939,2.4732,-0.1364,-0.025,0.4485
2826752,8.6574,4.1659,2.1141,-0.0845,0.004,0.3978
2826776,8.8466,3.8547,1.9201,-0.2025,-0.0187,0.3661
2826800,8.7029,4.0055,2.3655,-0.4295,0.1434,0.393
2826824,10.0341,4.8961,2.5163,-0.461,0.182,0.5124
2826848,9.6151,3.6105,2.806,-0.3565,0.1053,0.3829
2826872,10.0652,3.7158,2.5546,-0.1335,0.1194,-0.0314
2826896,10.3046,2.715,2.8659,-0.0469,-0.2028,-0.1418
2826920,8.7556,3.5243,2.4038,-0.1314,-0.2427,-0.1609
2826944,9.1554,4.0007,2.5426,-0.1956,-0.2715,0.0032
2826968,8.4755,4.2066,2.1261,-0.2188,-0.2084,0.109
2826992,9.3901,4.0175,2.3559,-0.0938,-0.1508,-0.0035
2827016,8.9543,3.5578,1.8148,-0.0893,-0.207,-0.0738
2827040,8.6048,3.9097,1.8986,-0.0304,-0.0917,-0.2004
2827064,8.7412,3.8547,2.0542,-0.028,-0.0653,-0.1857
2827088,8.7484,3.9624,2.0997,-0.1194,-0.1055,-0.0775
2827112,8.7293,4.0486,2.0111,-0.1833,-0.1474,0.081
2827136,8.6167,3.9983,1.7406,-0.1647,-0.0613,0.114
2827160,9.0908,3.9145,2.0423,-0.0863,0.0115,0.0416
2827184,9.3015,3.7637,2.1261,-0.0847,-0.0709,0.0562
2827208,8.8945,3.7493,1.9728,-0.1228,-0.1085,0.048
2827232,9.074,3.8547,2.0255,-0.1263,-0.1143,0.0392
2827256,8.7843,3.9816,1.7837,-0.1207,-0.0797,0.057
2827280,9.1147,3.8427,1.8914,-0.0783,-0.0352,0.0069
2827304,9.3111,3.7134,1.9585,-0.1271,-0.1335,0.0045
2827328,8.8945,3.7948,1.7502,-0.1506,-0.1236,0.0176
2827352,8.9711,3.7996,1.8124,-0.0941,-0.06,-0.0317
2827376,9.0668,3.6775,1.6999,-0.1162,-0.0645,-0.0946
2827400,8.9854,4.0294,1.6783,-0.1631,-0.0997,-0.0533
2827424,8.5593,3.8786,1.6807,-0.1362,-0.0312,0.0469
2827448,9.2225,3.8331,1.8244,-0.21,-0.0099,0.2872
2827472,9.0501,3.6224,1.8435,-0.2124,-0.0759,0.1705
2827496,8.6933,4.027,1.8292,-0.1482,-0.0027,0.0352
2827520,8.9687,3.7182,1.8124,-0.0946,0.0682,0.0421
2827544,9.7085,3.4907,2.1021,-0.1332,-0.0333,0.0072
2827568,9.1411,3.8666,1.8124,-0.1588,-0.1463,0.0346
2827592,8.8011,4.1611,1.8507,-0.0115,-0.0781,0.0232
2827616,9.0381,3.5578,1.7573,0.0906,-0.0115,-0.0147
2827640,9.3901,3.486,1.8842,0.0189,-0.0155,0.0352
2827664,9.5672,3.2968,1.6831,-0.0797,-0.1055,0.0141
2827688,9.5002,3.8188,1.8603,-0.1087,-0.1748,0.02
2827712,9.0261,3.7158,1.4341,-0.0637,-0.1729,-0.0512
2827736,9.2296,3.7828,1.561,0.0035,-0.0717,-0.1596
2827760,9.3901,3.6152,1.5443,-0.0229,-0.1295,-0.1074
2827784,8.6598,3.7733,1.1564,-0.0397,-0.0957,-0.1508
2827808,9.0142,3.7733,1.4198,-0.0376,-0.0362,-0.1263
2827832,8.916,3.8283,1.4365,-0.0759,-0.052,-0.0128
2827856,8.9352,3.7613,1.3192,-0.0464,-0.0322,-0.0328
2827880,9.1099,3.8523,1.3264,-0.06,-0.0181,-0.0616
2827904,9.2201,4.0366,1.47,-0.0613,0.0016,-0.0067
2827928,9.2656,3.6464,1.4054,-0.0757,-0.0296,-0.0064
2827952,8.8346,3.9337,1.3743,-0.0421,0.0197,-0.0882
2827976,9.1123,3.7804,1.3599,-0.0354,0.0634,-0.0336
2828000,8.9447,3.7182,1.2306,-0.0759,0.0674,0.0189
2828024,8.983,3.9121,1.2833,-0.0666,0.1244,0.0024
2828048,9.3494,3.9073,1.4629,-0.0546,0.1292,0.0088
2828072,9.3877,3.7014,1.3527,-0.0991,0.0781,0.0434
2828096,9.2081,3.9528,1.4676,-0.0914,0.0637,0.0048
2828120,9.2488,3.8666,1.5467,-0.0586,0.0384,-0.0277
2828144,9.019,3.7685,1.4844,-0.0618,0.0261,-0.0176
2828168,9.0357,3.7637,1.5467,-0.0679,0.0432,0.0173
2828192,9.1339,3.8044,1.5897,-0.0597,0.0397,0.0416
2828216,9.1267,3.7397,1.482,-0.0703,-0.0029,0.044
2828240,8.9399,3.9792,1.4485,-0.069,0.0077,0.0109
2828264,8.8562,3.9528,1.3408,-0.0464,0.0461,-0.0085
2828288,9.2416,3.7924,1.4581,-0.0866,0.0629,0.0211
2828312,9.3111,3.7373,1.5347,-0.1263,-0.0056,0.1223
2828336,9.0788,3.6895,1.3431,-0.1037,0.0005,0.0698
2828360,9.2129,3.8164,1.4437,-0.0679,0.0296,0.0077
2828384,9.3254,3.735,1.5562,-0.0592,0.0096,0.0181
2828408,9.1578,3.5841,1.5347,-0.0911,-0.029,0.0709
2828432,9.0285,3.6583,1.2761,-0.0946,-0.0314,0.1034
2828456,8.995,3.8355,1.336,-0.0634,-0.0176,0.0674
2828480,8.9759,3.8571,1.142,-0.0624,-0.0051,0.0453
2828504,9.0621,3.7828,1.3431,-0.0589,0.0019,0.0384
2828528,9.0597,3.6129,1.2186,-0.0472,0.0088,0.0253
2828552,9.1842,3.5841,1.2234,-0.0616,0.0149,0.0253
2828576,9.2249,3.6559,1.1612,-0.0805,-0.0091,0.0221
2828600,9.1267,3.7373,1.1468,-0.0799,0.0032,0.0069
2828624,9.2536,3.5243,1.1851,-0.0765,0.0157,-0.0221
2828648,9.1219,3.6559,1.1875,-0.0989,0.0192,-0.0013
2828672,9.1818,3.7397,1.233,-0.0997,0.0163,0.0141
2828696,9.2991,3.6847,1.3408,-0.0999,-0.0165,0.0045
2828720,9.0501,3.6344,1.2474,-0.0911,-0.0176,-0.004
2828744,9.1818,3.6296,1.3168,-0.0941,-0.0072,0.0365
2828768,9.1459,3.6392,1.2881,-0.1005,-0.0128,0.0711
2828792,9.268,3.6344,1.3623,-0.0914,0.0179,0.0376
2828816,9.3278,3.6033,1.391,-0.0983,-0.0203,0.0309
2828840,9.0836,3.62,1.2809,-0.0903,0.0136,-0.0232
2828864,9.4427,3.6368,1.4509,-0.0882,0.0149,-0.0293
2828888,9.2823,3.6272,1.3264,-0.1178,-0.025,-0.0099
2828912,9.323,3.723,1.3264,-0.1039,-0.0525,-0.0091
2828936,9.3134,3.5721,1.1516,-0.11,-0.0541,-0.0285
2828960,9.3158,3.7014,1.1133,-0.101,-0.0488,-0.053
2828984,9.323,3.5291,1.0654,-0.0967,-0.0442,-0.0384
2829008,9.2656,3.5913,1.1205,-0.1148,-0.0525,-0.0389
2829032,9.0836,3.7086,1.1061,-0.0946,-0.0346,-0.0232
2829056,9.244,3.6081,1.1923,-0.0738,-0.048,-0.0234
2829080,9.0716,3.5219,1.0343,-0.0901,-0.0544,-0.0147
2829104,9.0237,3.6559,1.0678,-0.0818,-0.0171,-0.0317
2829128,9.0597,3.8283,1.1612,-0.0874,0.0008,-0.0274
2829152,9.0022,3.7445,1.0774,-0.0775,0.0085,-0.0448
2829176,8.9783,3.7134,1.0463,-0.0658,0.0344,-0.0725
2829200,9.1219,3.644,1.1492,-0.0679,0.0325,-0.0517
2829224,9.1315,3.6559,1.075,-0.093,0.0288,-0.0181
2829248,9.0549,3.7278,1.0008,-0.0895,0.0661,-0.0077
2829272,9.3613,3.7014,1.2067,-0.077,0.081,-0.0232
2829296,9.4284,3.699,1.2522,-0.0805,0.056,-0.0197
2829320,9.335,3.723,1.1851,-0.0834,0.0165,-0.0248
2829344,9.1435,3.7565,1.1684,-0.0783,0.0128,-0.0208
2829368,9.1435,3.6966,1.154,-0.064,0.041,-0.0171
2829392,9.086,3.6607,1.1061,-0.0746,0.0405,0.012
2829416,9.0716,3.7709,1.1516,-0.0722,0.0695,0.0072
2829440,9.3278,3.7876,1.2546,-0.0701,0.0557,0.0397
2829464,9.2943,3.6583,1.2019,-0.0735,0.0322,0.0306
2829488,9.1794,3.6512,1.1372,-0.0661,0.0264,-0.0045
2829512,9.1147,3.7326,1.0846,-0.0621,0.029,-0.0128
2829536,9.0644,3.7062,1.0511,-0.0698,0.032,0.0048
2829560,8.9926,3.7613,1.0271,-0.0629,0.0538,0.0282
2829584,9.1985,3.6536,1.1109,-0.0658,0.0645,0.0522
2829608,9.0309,3.5961,0.9912,-0.0738,0.0845,0.045
2829632,9.2775,3.7661,1.1875,-0.0783,0.1031,0.0168
2829656,9.0094,3.802,1.0702,-0.0629,0.1167,0.0077
2829680,9.2727,3.6368,1.1732,-0.0581,0.1263,-0.0037
2829704,9.0788,3.6488,1.1253,-0.0821,0.1183,-0.0019
2829728,9.1578,3.7804,1.2785,-0.0602,0.158,-0.0226
2829752,9.3326,3.5123,1.3144,-0.0655,0.1135,0.0218
2829776,9.1243,3.6512,1.2163,-0.0847,0.1047,-0.0139
2829800,9.0142,3.8116,1.3144,-0.0616,0.1338,-0.0141
2829824,9.1387,3.6392,1.3072,-0.0554,0.1567,0.0149
2829848,9.153,3.6679,1.3479,-0.0687,0.1631,-0.0027
2829872,9.2009,3.6559,1.3527,-0.0562,0.1444,-0.0107
2829896,9.1842,3.6488,1.2785,-0.0602,0.1351,-0.0248
2829920,9.2201,3.7278,1.4102,-0.077,0.1319,-0.0048
2829944,8.9902,3.7278,1.3623,-0.0618,0.1548,-0.0208
2829968,9.153,3.5961,1.4485,-0.0469,0.162,-0.0064
2829992,9.2584,3.5626,1.5419,-0.0629,0.1338,0.0187
2830016,9.3877,3.6296,1.7023,-0.0863,0.0866,0.0493
2830040,9.1243,3.644,1.5227,-0.0879,0.0695,0.0368
2830064,9.2368,3.6583,1.6089,-0.0807,0.0679,0.0205
2830088,9.1171,3.6129,1.5371,-0.0906,0.0498,0.0536
2830112,9.0453,3.5626,1.4437,-0.0871,0.0946,0.0584
2830136,9.1291,3.6607,1.5419,-0.1005,0.1311,0.0565
2830160,9.3589,3.735,1.7071,-0.0858,0.1156,0.0578
2830184,9.0932,3.5291,1.5299,-0.0722,0.1383,0.0648
2830208,9.1387,3.5817,1.5826,-0.0621,0.1881,0.0258
2830232,8.9447,3.7876,1.6233,-0.0083,0.3142,0.0296
2830256,9.4475,3.4117,1.7669,-0.0274,0.292,0.0735
2830280,9.2249,3.395,1.9201,-0.0861,0.2148,0.056
2830304,8.7724,3.5817,1.5467,-0.0895,0.2531,0.1191
2830328,8.7843,3.6009,1.7023,-0.0003,0.3954,-0.0432
2830352,9.0453,3.6559,1.9417,-0.0277,0.4133,-0.0056
2830376,8.734,3.5291,1.9609,-0.0522,0.4514,0.1103
2830400,9.074,3.4022,2.1955,-0.0504,0.466,0.0029
2830424,9.0644,3.6943,2.1955,-0.0533,0.4341,0.0512
2830448,9.0309,3.3615,2.2027,-0.0568,0.3776,0.0773
2830472,8.9926,3.4716,2.3846,-0.0432,0.3789,0.0522
2830496,8.7436,3.4644,2.3463,-0.0368,0.4074,0.061
2830520,8.8777,3.565,2.5546,-0.0312,0.4628,0.056
2830544,9.3158,3.4189,2.7892,-0.0682,0.3941,0.1039
2830568,9.7229,3.2992,3.0071,-0.1005,0.2254,0.1322
2830592,9.3565,3.3471,2.8156,-0.1314,0.1026,0.1127
2830616,8.9615,3.5338,2.7773,-0.0655,0.126,0.0163
2830640,9.2608,3.2633,2.7509,-0.0368,0.1567,-0.0624
2830664,9.256,3.371,2.8323,-0.0909,0.1013,-0.0376
2830688,9.0237,3.4788,2.8252,-0.0975,0.0794,-0.0421
2830712,9.0261,3.5386,2.9018,-0.0645,0.0829,-0.0725
2830736,9.0333,3.3136,2.8299,-0.0498,0.0805,-0.0805
2830760,9.1123,3.4093,2.7988,-0.0682,0.0634,-0.0922
2830784,8.7939,3.5171,2.6719,-0.0685,0.0506,-0.0743
2830808,8.8538,3.5338,2.7581,-0.0496,0.0642,-0.0594
2830832,8.8155,3.4333,2.7653,-0.0488,0.0589,-0.049
2830856,8.837,3.4333,2.8323,-0.0514,0.0834,-0.0362
2830880,8.9064,3.5195,2.8898,-0.069,0.069,-0.0099
2830904,8.8394,3.5721,2.8515,-0.0618,0.0621,-0.0258
2830928,8.8609,3.5003,2.8635,-0.0506,0.0384,-0.0485
2830952,8.6957,3.5434,2.8754,-0.0602,0.0546,-0.0261
2830976,8.8969,3.5482,2.9544,-0.0674,0.0608,-0.0059
2831000,8.9184,3.6009,2.9712,-0.0682,0.0378,-0.0211
2831024,8.8825,3.6272,2.885,-0.0586,0.0141,-0.0504
2831048,8.8514,3.4524,2.8587,-0.0855,-0.0091,-0.0101
2831072,8.5736,3.6248,2.7557,-0.0906,0.0131,-0.0083
2831096,8.8921,3.6057,2.7605,-0.053,0.056,-0.057
2831120,8.983,3.5051,2.8467,-0.089,0.0197,-0.0346
2831144,8.8178,3.5171,2.7677,-0.0935,0.0048,0.0019
2831168,8.904,3.5123,2.7749,-0.0791,0.0085,-0.0221
2831192,8.8107,3.6583,2.8132,-0.0773,0.0024,-0.0171
2831216,8.7245,3.5434,2.6695,-0.0687,0.0171,-0.0218
2831240,8.7795,3.5674,2.7078,-0.0821,0.0298,-0.0237
2831264,8.7412,3.6009,2.7414,-0.0917,0.0277,-0.0005
2831288,8.8274,3.6392,2.8539,-0.0751,0.0589,-0.029
2831312,8.9304,3.5386,2.8084,-0.0727,0.0322,-0.0061
2831336,8.7508,3.5865,2.7797,-0.0751,0.0581,0.0008
2831360,9.0214,3.6344,2.9305,-0.0778,0.0458,0.0016
2831384,8.77,3.5769,2.7318,-0.0725,0.0378,-0.0059
2831408,8.8418,3.5937,2.8132,-0.073,0.0589,-0.028
2831432,8.8274,3.5985,2.8036,-0.085,0.0461,0.0011
2831456,8.8945,3.5602,2.8467,-0.0847,0.057,-0.0189
2831480,8.8969,3.5602,2.8754,-0.0914,0.0349,-0.0109
2831504,8.825,3.5578,2.8036,-0.0863,0.0421,-0.0133
2831528,8.8801,3.6057,2.8515,-0.0829,0.0482,-0.0107
2831552,8.8945,3.5817,2.9281,-0.0914,0.0314,0.0077
2831576,8.8753,3.5698,2.9233,-0.0917,0.0314,0.0093
2831600,8.849,3.6559,2.8778,-0.0869,0.0272,-0.008
2831624,8.9232,3.6512,2.8922,-0.0893,0.0195,-0.0189
2831648,8.8274,3.62,2.9137,-0.0871,0.0179,-0.0253
2831672,8.8274,3.541,2.8659,-0.0858,0.0234,-0.0301
2831696,8.7508,3.5602,2.8563,-0.0885,0.0522,-0.0501
2831720,8.8777,3.6895,2.9018,-0.0898,0.0533,-0.0434
2831744,8.8274,3.723,2.8659,-0.0791,0.0203,-0.0253
2831768,8.7771,3.5674,2.7869,-0.073,0.0312,-0.0272
2831792,8.8274,3.5889,2.8108,-0.0853,0.0314,-0.0091
2831816,8.8202,3.6009,2.8252,-0.0826,0.0245,-0.0027
2831840,8.7963,3.6296,2.8467,-0.0869,0.0376,-0.0141
2831864,8.8346,3.6368,2.8946,-0.0823,0.0213,0.0032
2831888,8.7173,3.6105,2.7677,-0.0855,0.0488,0.0011
2831912,8.916,3.6631,2.9664,-0.0943,0.0394,0.0013
2831936,8.5784,3.6823,2.8683,-0.0781,0.0661,-0.0195
2831960,8.6622,3.6105,2.8276,-0.0775,0.0895,-0.0234
2831984,8.4348,3.6943,2.7988,-0.0778,0.154,-0.0288
2832008,8.4348,3.699,2.885,-0.0637,0.2313,-0.0349
2832032,8.4443,3.6655,3.0598,-0.0749,0.2662,-0.0181
2832056,8.2696,3.6847,3.0574,-0.0655,0.3555,0.0722
2832080,8.1762,3.5745,2.9928,-0.0909,0.5049,0.1378
2832104,8.7532,3.4979,3.0287,-0.1138,0.5953,0.1452
2832128,8.9423,3.5698,3.4022,-0.1108,0.5644,0.0147
2832152,8.3677,3.9696,3.5698,-0.0218,0.5268,-0.1183
2832176,7.9871,3.7996,3.5817,0.122,0.5798,-0.2334
2832200,8.0948,3.5291,3.6488,0.0877,0.6075,-0.0632
2832224,8.0613,3.3495,3.6727,-0.0298,0.6062,0.1721
2832248,8.1211,3.6871,4.0486,-0.0648,0.6635,0.2609
2832272,8.4108,3.7206,4.209,0.0301,0.6638,0.2014
2832296,8.2049,3.4884,4.0175,0.1007,0.644,0.0999
2832320,8.1139,3.304,4.13,0.0973,0.7165,0.0714
2832344,8.1906,3.6823,4.3431,0.1106,0.7344,0.0927
2832368,7.9799,3.5937,4.2784,0.1079,0.7288,0.1276
2832392,7.6279,3.6536,4.2617,0.1503,0.7962,0.0914
2832416,7.7859,3.3447,4.4604,0.1817,0.8455,0.0298
2832440,7.3765,3.474,4.6448,0.1788,0.8791,-0.0397
2832464,7.75,3.6727,5.3463,0.182,0.8876,0.0285
2832488,8.2121,3.5578,5.5833,0.1063,0.7922,0.3725
2832512,8.4013,3.541,5.8969,0.056,0.7368,0.4351
2832536,8.7843,3.3758,6.177,0.0885,0.6139,0.4319
2832560,9.0094,3.3279,6.2153,0.1306,0.4572,0.3134
2832584,8.3773,3.6416,5.7365,0.1913,0.2825,0.1037
2832608,6.699,4.1515,4.9177,0.2345,0.2473,-0.211
2832632,5.5186,4.4077,4.8123,0.1809,0.4298,-0.2939
2832656,6.8378,3.4572,5.3654,-0.0453,0.6763,0.2454
2832680,9.4451,2.5762,6.5553,-0.2217,0.5971,0.6558
2832704,9.6295,2.9544,6.2872,-0.2345,0.238,0.4983
2832728,7.8913,3.7278,6.1339,-0.02,0.0258,-0.0821
2832752,6.7756,3.7828,5.5354,0.0994,0.0019,-0.1484
2832776,6.5673,3.3375,5.2696,-0.0461,0.0695,0.1021
2832800,7.2688,3.6488,5.7796,-0.2217,0.0701,0.3842
2832824,7.2018,3.4189,5.7317,-0.1855,0.0482,0.3363
2832848,7.6758,3.3375,5.8826,-0.0549,0.0437,0.1092
2832872,7.3646,3.3902,5.6168,-0.0429,0.0794,0.0221
2832896,7.434,3.2609,5.6072,-0.1399,0.0421,0.1407
2832920,7.3023,3.1867,5.636,-0.1665,0.0666,0.1748
2832944,7.252,3.2082,5.679,-0.125,0.1087,0.093
2832968,8.0732,3.146,6.1076,-0.0794,0.0831,0.0632
2832992,7.3215,2.8635,5.6886,-0.0685,-0.0099,0.0125
2833016,7.4867,3.0526,5.8347,-0.0632,0.0477,-0.036
2833040,7.5489,3.0957,5.873,-0.0951,-0.008,0.0429
2833064,7.2856,3.1412,5.6527,-0.0735,0.0285,-0.0176
2833088,7.2568,3.395,5.794,-0.0482,0.0602,-0.1074
2833112,7.3263,3.2441,5.8203,-0.0871,0.0293,-0.0325
2833136,7.2233,3.1987,5.7365,-0.1362,0.037,0.0546
2833160,7.5776,3.2322,5.8897,-0.1063,0.0352,0.0048
2833184,7.7213,3.122,5.8993,-0.0877,-0.0269,-0.0296
2833208,7.1826,3.2082,5.7389,-0.0973,-0.0509,-0.0458
2833232,7.3598,3.2944,5.8562,-0.109,-0.0261,0.0045
2833256,8.1475,3.1484,6.0166,-0.158,-0.0746,0.1055
2833280,7.7117,2.8754,5.5737,-0.1116,-0.2036,-0.0994
2833304,6.9791,3.7613,5.6072,-0.0165,-0.1151,-0.3038
2833328,7.4675,3.1364,5.5833,-0.0786,-0.0941,-0.1367
2833352,7.829,3.0837,5.6192,-0.166,-0.0474,0.0152
2833376,8.6598,3.0837,6.0094,-0.1585,-0.1404,0.0402
2833400,9.1363,2.739,6.0382,-0.1753,-0.2457,0.0173
2833424,9.3781,2.6911,6.1675,-0.1865,-0.4317,-0.0629
2833448,8.1499,2.9377,5.679,-0.1884,-0.5681,-0.1719
2833472,7.3717,3.5961,5.5043,-0.2126,-0.5321,-0.1897
2833496,6.9504,3.8355,5.193,-0.2579,-0.5161,-0.0437
2833520,6.8857,3.565,4.9249,-0.2254,-0.3826,-0.0187
2833544,7.7333,3.2753,5.1284,-0.1793,-0.2313,-0.065
2833568,8.3127,2.9353,5.2553,-0.1711,-0.2947,-0.1306
2833592,8.0014,2.9233,4.9536,-0.1617,-0.311,-0.2856
2833616,7.9296,3.2274,4.9752,-0.0791,-0.3254,-0.4716
2833640,7.9942,3.2585,4.9752,-0.053,-0.3491,-0.5215
2833664,8.2361,3.3878,5.1523,-0.1903,-0.4812,-0.3411
2833688,8.09,3.2633,4.7645,-0.296,-0.5961,-0.0962
2833712,8.0565,3.2226,4.4891,-0.2566,-0.5939,-0.2627
2833736,8.442,3.5171,4.4915,-0.1745,-0.6027,-0.5918
2833760,9.1243,3.9361,4.877,-0.2132,-0.7717,-0.7083
2833784,9.1818,3.4213,4.6017,-0.3483,-1.0682,-0.5396
2833808,9.4547,3.5937,4.4101,-0.4823,-1.2998,-0.4858
2833832,9.3518,4.1084,4.5777,-0.498,-1.4853,-0.5292
2833856,9.9551,3.7421,4.3455,-0.4671,-1.6297,-0.8021
2833880,9.1722,4.0725,4.2808,-0.364,-1.8631,-1.335
2833904,8.193,4.3479,3.0095,-0.2992,-1.8772,-1.3406
2833928,8.0613,4.3239,2.6217,-0.3552,-1.7019,-1.088
2833952,8.9399,4.4963,2.7869,-0.4333,-1.6475,-0.8212
2833976,9.3302,4.7333,2.806,-0.461,-1.7906,-0.6408
2834000,8.7987,4.8914,2.5139,-0.3797,-1.8884,-0.724
2834024,8.4611,4.9129,2.1117,-0.2435,-1.8269,-0.8604
2834048,8.0732,4.604,1.5562,-0.2038,-1.7467,-1.0309
2834072,7.3933,5.1236,1.1899,-0.1772,-1.6132,-1.2708
2834096,7.7189,5.5067,0.9529,-0.1284,-1.4685,-1.2785
2834120,7.2832,5.5426,0.2514,-0.1625,-1.4019,-1.1207
2834144,7.0437,5.9735,-0.2873,-0.1863,-1.2129,-1.0781
2834168,7.3598,6.268,-0.3232,-0.2028,-1.0992,-1.0906
2834192,6.7876,6.7924,-0.6273,-0.2049,-1.0285,-1.0461
2834216,6.1579,7.6375,-0.9697,-0.0632,-0.7115,-0.8942
2834240,7.2472,6.7564,-0.6009,-0.0128,-0.5817,-0.7722
2834264,6.9504,6.7373,-0.5195,-0.0314,-0.6888,-0.7933
2834288,6.0597,7.5226,-0.9242,0.024,-0.6147,-0.838
2834312,6.0549,7.6662,-0.9673,0.122,-0.4226,-0.6856
2834336,6.1411,7.2784,-1.2234,0.1212,-0.3408,-0.5572
2834360,6.0932,7.3502,-1.4844,0.0751,-0.2843,-0.381
2834384,6.4045,7.0461,-1.4916,0.0234,-0.2657,-0.3003
2834408,6.1076,7.0461,-1.664,0.048,-0.1716,-0.4146
2834432,6.3446,7.027,-1.6807,0.1252,-0.0719,-0.7546
2834456,5.7676,7.7788,-1.8531,0.1316,0.0016,-0.89
2834480,5.6192,8.2624,-1.7957,0.1692,0.0648,-0.6997
2834504,5.4372,7.999,-1.8507,0.1753,0.0877,-0.4218
2834528,5.5905,7.8075,-1.9537,0.1423,0.0717,-0.3123
2834552,5.114,7.5776,-2.0255,0.15,0.0261,-0.2654
2834576,4.9297,7.4531,-2.2051,0.0775,0.1522,-0.3533
2834600,5.047,8.26,-2.1404,0.0474,0.2012,-0.3235
2834624,5.2409,8.7317,-2.0063,0.0698,0.2177,-0.0935
2834648,5.7078,8.0182,-1.8675,0.0136,0.1364,0.1964
2834672,5.5234,7.9823,-1.8028,-0.1098,0.0616,0.2118
2834696,5.9568,8.0661,-1.5538,-0.1386,-0.0176,0.1916
2834720,5.4803,8.0685,-1.8196,-0.1095,-0.0608,0.0885
2834744,6.3518,8.1211,-1.4054,-0.0778,-0.1721,0.0648
2834768,6.2321,7.5274,-1.6328,-0.1196,-0.486,0.1146
2834792,5.6479,7.7788,-1.992,-0.1543,-0.6006,0.024
2834816,5.0446,7.683,-2.5139,-0.0954,-0.5423,-0.1268
2834840,5.5402,7.6255,-2.4349,-0.1138,-0.4916,-0.2033
2834864,5.7245,8.5808,-2.1213,-0.1498,-0.5838,-0.0858
2834888,5.9975,7.944,-2.2865,-0.0965,-0.7218,0.0794
2834912,6.0382,7.7907,-2.5546,-0.1761,-0.9188,0.0983
2834936,5.6958,8.2911,-2.7485,-0.1319,-1.0379,-0.0541
2834960,5.4612,7.7165,-2.806,-0.0786,-1.0901,-0.2132
2834984,5.5809,7.9966,-2.7605,-0.1775,-1.1588,-0.1585
2835008,5.4612,7.9009,-2.9113,-0.2699,-1.2169,-0.0669
2835032,5.363,7.9631,-2.9592,-0.3086,-1.2678,-0.2068
2835056,5.1356,7.7835,-3.1939,-0.2832,-1.3318,-0.3765
2835080,4.6352,8.0924,-3.4596,-0.3565,-1.3438,-0.3552
2835104,4.209,8.102,-3.4022,-0.3368,-1.2425,-0.4162
2835128,3.7158,8.351,-3.7541,-0.3387,-1.068,-0.4759
2835152,3.541,8.6239,-4.027,-0.3187,-0.8143,-0.3533
2835176,3.9959,8.0661,-3.6751,-0.3624,-0.7101,-0.3019
2835200,3.948,9.0357,-3.3088,-0.4186,-0.6888,-0.1764
2835224,3.8666,9.1099,-3.2657,-0.2947,-0.6664,0.064
2835248,3.4716,8.2863,-3.6176,-0.1665,-0.5628,0.049
2835272,3.371,7.8841,-3.699,-0.178,-0.3941,-0.0981
2835296,3.4596,8.7317,-3.3016,-0.1721,-0.2651,-0.1447
2835320,3.7254,9.0836,-3.2825,-0.0967,-0.1985,0.0051
2835344,4.312,8.3558,-3.1627,-0.0517,-0.3341,0.1767
2835368,3.2657,7.7548,-3.7326,-0.1226,-0.3893,0.1644
2835392,2.5762,8.181,-4.0294,-0.1378,-0.1876,0.0115
2835416,2.8228,8.5856,-3.8164,-0.085,0.0528,-0.0624
2835440,3.6655,8.8155,-3.3615,-0.1207,0.0429,0.1122
2835464,3.7206,8.7532,-3.4093,-0.1367,-0.0767,0.3869
2835488,3.1316,7.9296,-4.0223,-0.1884,-0.0863,0.458
2835512,3.0119,8.1427,-4.3263,-0.2497,0.0493,0.3483
2835536,3.1388,8.3701,-4.2976,-0.2473,0.2483,0.3147
2835560,3.8642,8.5425,-3.8571,-0.2622,0.3467,0.4162
2835584,4.4341,8.576,-3.6536,-0.275,0.3118,0.6315
2835608,4.391,7.5441,-3.7876,-0.3408,0.2702,0.6915
2835632,4.0917,7.7835,-3.7541,-0.4077,0.38,0.474
2835656,4.6208,7.8769,-3.4141,-0.373,0.4996,0.3997
2835680,4.9728,7.8865,-3.3399,-0.4445,0.4695,0.3821
2835704,4.968,8.9208,-3.043,-0.4519,0.5055,0.4101
2835728,5.3917,9.0309,-2.4277,-0.3179,0.5617,0.5161
2835752,5.7628,8.4396,-2.3798,-0.2419,0.4996,0.6179
2835776,5.0374,8.2313,-2.8563,-0.2329,0.5457,0.6254
2835800,5.2601,7.8841,-2.9928,-0.1966,0.7879,0.6328
2835824,6.2872,7.4077,-1.9321,-0.3536,0.8599,0.7586
2835848,6.3063,7.5585,-2.2889,-0.3389,0.8964,0.8863
2835872,7.1084,6.6726,-1.4844,-0.3858,0.9558,0.6454
2835896,7.5417,7.513,-0.6895,-0.3656,0.7962,0.0935
2835920,7.2113,7.7644,-1.6281,-0.267,0.4623,-0.1932
2835944,6.1172,7.5489,-2.2458,-0.4218,0.2731,-0.2398
2835968,6.2896,8.4276,-1.7454,-0.5028,0.2777,-0.0869
2835992,7.2808,7.5154,-1.4246,-0.4426,0.0973,0.154
2836016,6.4548,7.0605,-1.7933,-0.4583,-0.0165,0.1759
2836040,6.3039,7.4627,-1.3336,-0.3773,0.0903,-0.109
2836064,6.7109,8.5449,-0.4118,-0.3227,0.0829,-0.4623
2836088,6.8283,8.6503,-0.0287,-0.1919,-0.0853,-0.5484
2836112,6.3327,8.102,-0.6249,-0.1087,-0.2606,-0.5289
2836136,6.0478,7.185,-0.9984,-0.1753,-0.3571,-0.2188
2836160,5.4324,7.4053,-1.3384,-0.2526,-0.3587,-0.121
2836184,5.4157,8.2169,-1.4916,-0.1247,-0.1913,-0.2214
2836208,5.4995,8.7915,-1.3934,-0.121,-0.1721,-0.1215
2836232,5.3965,8.3917,-1.3408,-0.0581,-0.1404,0.0727
2836256,5.8179,7.616,-1.3048,-0.109,-0.097,-0.0869
2836280,5.6695,7.829,-1.3934,-0.1029,-0.0197,-0.4029
2836304,6.3159,8.1331,-0.7374,-0.1439,-0.0757,-0.5281
2836328,6.0166,8.1954,-0.759,-0.2089,-0.3605,-0.3874
2836352,4.7669,8.3582,-1.4198,-0.2252,-0.4242,-0.2678
2836376,4.5298,8.181,-1.5514,-0.114,-0.2004,-0.2982
2836400,5.3151,8.0373,-1.1732,-0.1212,-0.1588,-0.3112
2836424,5.3654,8.4515,-1.1253,-0.1585,-0.279,-0.2643
2836448,4.8578,8.7532,-1.4844,-0.1431,-0.3291,-0.2118
2836472,4.4963,8.5952,-1.8244,-0.0954,-0.219,-0.1913
2836496,4.7142,8.7388,-1.7621,-0.0954,-0.118,-0.2188
2836520,5.1332,8.6598,-1.7597,-0.089,-0.1466,-0.2358
2836544,4.9057,8.6622,-2.1955,-0.0618,-0.1711,-0.1644
2836568,4.877,8.4443,-2.2434,-0.0314,-0.1492,-0.0589
2836592,5.1116,8.0948,-2.0279,-0.0418,-0.1796,-0.0216
2836616,5.0422,8.0469,-2.0806,-0.1074,-0.2281,-0.1324
2836640,4.7405,8.4779,-2.1213,-0.1335,-0.1913,-0.1567
2836664,4.719,8.9495,-1.9585,-0.0781,-0.1274,-0.0384
2836688,5.1523,8.6957,-1.652,-0.0743,-0.1567,0.1889
2836712,4.8842,8.3606,-1.731,-0.1284,-0.1681,0.1119
2836736,5.1332,8.6191,-1.5107,-0.1002,-0.1082,-0.1252
2836760,5.2146,8.7221,-1.6233,-0.1124,-0.1793,-0.1716
2836784,4.9704,8.6479,-1.8124,-0.1132,-0.2193,-0.0709
2836808,4.9656,8.169,-1.7382,-0.1156,-0.21,-0.1522
2836832,4.9321,8.4252,-1.7454,-0.1418,-0.2206,-0.3192
2836856,4.7333,8.5042,-1.7502,-0.1468,-0.2577,-0.3275
2836880,4.4939,8.7436,-1.9585,-0.1412,-0.2856,-0.2449
2836904,4.5083,8.6598,-2.1548,-0.1175,-0.2553,-0.1156
2836928,4.6711,8.3079,-2.0327,-0.1295,-0.2609,-0.0682
2836952,4.2401,8.6072,-2.0758,-0.1426,-0.2265,-0.1879
2836976,3.9983,9.1578,-2.1835,-0.1327,-0.1375,-0.3208
2837000,3.8403,9.4332,-2.2625,-0.0869,-0.0568,-0.2462
2837024,3.9576,9.0668,-2.1644,-0.073,-0.0144,-0.1154
2837048,4.4772,8.6,-1.9058,-0.1071,-0.0107,-0.109
2837072,4.604,8.5042,-1.8555,-0.1511,-0.0906,-0.1791
2837096,4.0773,8.4539,-2.1979,-0.1969,-0.0999,-0.2598
2837120,3.7852,8.8107,-2.2242,-0.1905,-0.0517,-0.295
2837144,3.7062,8.8274,-2.1093,-0.1751,0.0711,-0.3288
2837168,4.051,8.9854,-1.8172,-0.19,0.0357,-0.271
2837192,3.5362,8.8633,-1.9249,-0.2105,0.0208,-0.2028
2837216,3.9025,9.0549,-1.6592,-0.2305,0.0354,-0.2835
2837240,3.3758,9.3254,-1.9297,-0.1956,0.0642,-0.2467
2837264,3.5314,9.019,-1.8292,-0.1391,0.1881,-0.2459
2837288,3.9576,8.9352,-1.6735,-0.1625,0.1487,-0.2137
2837312,3.79,9.074,-1.7717,-0.149,0.0653,-0.0701
2837336,3.4572,8.6503,-1.992,-0.1506,0.0509,0.0211
2837360,3.3232,8.746,-1.7957,-0.158,0.1282,-0.0674
2837384,3.6368,9.1842,-1.482,-0.1588,0.1074,-0.0938
2837408,3.5554,9.663,-1.6209,-0.1263,0.0597,-0.0008
2837432,3.3902,9.5074,-1.7741,-0.0703,0.1069,0.1215
2837456,3.7685,8.995,-1.652,-0.0589,0.1588,0.113
2837480,3.8858,8.6814,-1.664,-0.1287,0.129,0.0474
2837504,3.8379,9.0716,-1.7119,-0.1633,0.1202,-0.0117
2837528,3.6559,9.0716,-1.7549,-0.1479,0.1282,0.041
2837552,3.6775,8.9998,-1.4844,-0.1591,0.126,0.036
2837576,3.8283,9.4284,-1.4317,-0.1458,0.1687,-0.0565
2837600,4.1539,9.3637,-1.3288,-0.1124,0.1474,-0.0413
2837624,3.8355,8.7628,-1.6305,-0.0866,0.0962,0.0064
2837648,3.565,8.5114,-1.7454,-0.0991,0.0709,-0.0211
2837672,3.3782,9.0237,-1.7645,-0.1143,0.0911,-0.0293
2837696,3.316,9.4164,-1.7861,-0.0735,0.1303,0.0554
2837720,3.6559,9.3278,-1.7166,-0.0426,0.1631,0.1948
2837744,4.1156,9.0692,-1.4365,-0.0448,0.1255,0.2084
2837768,4.2138,8.9711,-1.4078,-0.0711,0.065,0.1085
2837792,4.0845,9.2751,-1.5251,-0.0749,0.0397,0.0288
2837816,4.0893,9.3063,-1.6185,-0.0592,0.0578,0.0594
2837840,4.2976,8.9926,-1.3862,-0.0658,0.0517,0.0405
2837864,4.2641,8.8298,-1.3264,-0.0901,0.0029,-0.0306
2837888,3.9145,8.9543,-1.5323,-0.0941,-0.0125,-0.0722
2837912,3.7972,8.9639,-1.6017,-0.1031,0.0029,0.0115
2837936,3.7948,8.8969,-1.573,-0.118,0.0173,0.065
2837960,3.7709,9.0908,-1.5586,-0.1061,0.0986,0.0136
2837984,4.1444,9.0429,-1.3719,-0.1194,0.0783,0.0176
2838008,3.8403,9.2081,-1.6831,-0.1388,0.0679,0.0557
2838032,4.2856,9.019,-1.4485,-0.1458,0.1034,0.0839
2838056,4.3551,8.7197,-1.8603,-0.2153,0.206,-0.0322
2838080,4.9871,8.7867,-1.3934,-0.3016,0.2785,-0.2891
2838104,5.4612,9.4499,-0.7685,-0.2896,0.0805,-0.3997
2838128,4.1444,9.1291,-1.2761,-0.2835,-0.1484,-0.2281
2838152,2.6767,8.4779,-1.968,-0.2947,-0.0703,-0.1844
2838176,2.5762,9.1459,-1.7669,-0.2827,0.2276,-0.3003
2838200,3.5434,9.7731,-1.0918,-0.2276,0.2353,-0.0714
2838224,3.3351,9.256,-1.403,-0.206,0.1386,0.2646
2838248,3.1867,8.7197,-1.6328,-0.2086,0.2377,0.299
2838272,3.5027,8.6455,-1.3431,-0.2473,0.3605,0.0717
2838296,3.7086,9.0908,-0.9888,-0.2979,0.3312,-0.0549
2838320,3.146,9.6606,-0.8906,-0.2491,0.3501,-0.0272
2838344,3.0191,9.0237,-0.8308,-0.1857,0.4082,0.0847
2838368,3.2226,8.9735,-0.7135,-0.2121,0.5025,0.2086
2838392,4.1037,9.335,-0.1724,-0.1503,0.6011,0.364
2838416,4.8267,8.5234,0.1844,-0.0879,0.5303,0.4183
2838440,4.0965,8.0445,-0.2945,-0.1172,0.3701,0.2518
2838464,2.4948,9.2919,-1.166,-0.2134,0.5889,0.2662
2838488,3.6919,9.505,-0.261,-0.1599,0.9036,0.3128
2838512,4.5969,9.7923,0.1365,-0.1703,0.8058,0.3722
2838536,4.0151,9.3661,-0.1053,-0.1849,0.7216,0.5478
2838560,3.5003,8.7388,-0.2322,-0.1407,0.8942,0.3701
2838584,3.948,7.8266,0.067,-0.1855,0.9806,0.2406
2838608,4.312,8.5641,0.1844,-0.3555,0.9052,0.4096
2838632,5.4755,9.6414,0.6584,-0.3496,0.918,0.8977
2838656,6.347,8.102,0.8547,-0.2944,0.9332,0.7586
2838680,6.517,7.932,1.1947,-0.3549,0.8287,0.219
2838704,5.3534,8.0397,0.8595,-0.4205,0.7285,-0.0035
2838728,4.5538,8.8059,0.8332,-0.4215,0.7408,-0.0621
2838752,3.8978,8.8849,0.723,-0.3296,0.8279,0.1434
2838776,4.7357,9.1219,1.2617,-0.2888,0.9361,0.4351
2838800,6.4596,8.9112,1.9704,-0.1641,0.8244,0.498
2838824,6.0885,8.2983,1.5419,-0.0629,0.5945,0.502
2838848,4.6543,7.6614,0.7757,-0.0344,0.6691,0.4594
2838872,4.8291,7.2808,1.1253,-0.0879,0.8884,0.2774
2838896,5.782,7.1826,1.8579,-0.1863,0.8356,0.0693
2838920,5.035,8.0325,1.7166,-0.1961,0.736,0.3267
2838944,5.6767,7.8219,2.4852,-0.138,0.9294,0.6979
2838968,5.9544,7.6471,3.4644,-0.2334,0.9998,0.336
2838992,5.9089,8.9208,4.0582,-0.1769,0.8839,-0.2553
2839016,4.3862,9.1004,3.4213,-0.1013,0.7285,-0.0322
2839040,3.0263,8.928,2.3343,-0.0719,0.9856,0.5492
2839064,4.197,7.908,2.6456,-0.0719,1.3856,0.8124
2839088,6.4332,7.683,3.6129,-0.0485,1.2881,0.478
2839112,5.4061,8.1235,2.4972,-0.069,0.9401,0.2313
2839136,1.7909,8.1906,1.0127,0.0312,1.3787,0.2038
2839160,3.5051,8.0709,3.0239,0.1119,1.9705,0.4197
2839184,5.7509,6.3973,4.8123,-0.024,1.7237,0.7941
2839208,5.1092,6.4236,3.9624,-0.2537,1.2899,0.9278
2839232,3.5793,7.2185,3.043,-0.1684,1.3558,0.7738
2839256,4.3144,6.2584,3.8523,-0.2009,1.5855,0.9697
2839280,5.0949,6.4931,4.7669,-0.3176,1.5444,0.8724
2839304,5.4444,7.1156,4.9512,-0.271,1.4448,0.7711
2839328,5.9831,6.3638,4.7956,-0.3555,1.2532,1.0118
2839352,5.8586,5.4444,4.628,-0.5462,1.0563,1.1509
2839376,4.7645,6.1076,4.458,-0.5039,1.2372,0.8553
2839400,6.1363,6.5386,5.624,-0.4493,1.34,0.6209
2839424,6.0549,6.8378,5.9472,-0.656,0.9313,1.2454
2839448,4.5131,6.0597,5.4277,-0.7155,1.0688,1.9017
2839472,6.2896,4.7884,6.5841,-0.558,1.2148,1.6156
2839496,6.9168,4.853,6.4452,-0.4565,0.907,0.9662
2839520,6.4356,4.9799,5.9137,-0.3216,0.7123,0.4189
2839544,5.545,5.861,5.6862,-0.3389,0.6726,0.3629
2839568,5.0829,6.0837,5.4444,-0.3078,0.765,0.6243
2839592,5.6288,5.193,5.5881,-0.3744,0.8695,0.8271
2839616,5.9759,5.3534,6.0885,-0.4362,0.8753,0.8631
2839640,6.45,4.8961,6.541,-0.4112,0.8729,0.8855
2839664,6.5936,4.2401,6.7876,-0.4455,0.8521,0.7893
2839688,6.608,4.8052,7.3167,-0.3669,0.8444,0.3984
2839712,6.043,4.9153,7.6543,-0.3456,0.7751,0.4008
2839736,4.8291,4.8315,7.5298,-0.3738,0.7989,0.7176
2839760,4.1755,4.7908,7.6399,-0.2081,1.1751,0.9835
2839784,5.9592,2.8826,8.5856,-0.2124,1.2209,0.9958
2839808,6.5721,2.083,8.9687,-0.3762,0.8127,0.7352
2839832,5.7341,3.2226,8.0302,-0.3118,0.652,0.3003
2839856,4.7094,3.4141,7.4077,-0.1903,0.8324,0.0437
2839880,5.2313,3.6081,8.1499,-0.2449,0.8372,0.0781
2839904,4.9752,3.9169,8.3294,-0.3667,0.7418,0.4807
2839928,5.0542,3.6775,8.4994,-0.4114,0.7013,0.6427
2839952,5.2505,3.4022,8.7652,-0.4005,0.4788,0.4956
2839976,4.5466,3.6871,8.9256,-0.3722,0.3808,0.3648
2840000,4.3431,3.5578,8.8131,-0.2561,0.3888,0.1884
2840024,3.8666,3.2896,8.6886,-0.1972,0.2739,0.0655
2840048,3.0263,3.0574,8.2361,-0.1386,0.3858,0.0437
2840072,4.3407,2.6312,8.5736,-0.2782,0.3672,0.1791
2840096,3.5314,2.8467,8.4108,-0.3656,0.2507,0.255
2840120,2.9616,2.976,8.6479,-0.3107,0.3557,0.0898
2840144,3.2106,3.0598,9.0405,-0.2795,0.4253,0.0133
2840168,3.0646,2.1787,8.6718,-0.2523,0.4178,0.0829
2840192,2.1237,2.0997,8.6359,-0.3424,0.5454,-0.0682
2840216,2.9975,3.067,9.1075,-0.4413,0.5942,0.2166
2840240,2.9928,3.2274,9.0549,-0.5742,0.5148,0.894
2840264,4.3646,2.6264,9.675,-0.6411,0.4626,1.3427
2840288,5.4636,1.3288,10.0006,-0.5606,0.2822,1.3344
2840312,4.3144,1.0319,9.4763,-0.311,0.1378,0.3381
2840336,3.6536,2.9137,9.2823,-0.0253,0.3038,-0.3301
2840360,4.1013,2.8252,9.3757,0.0328,0.1292,-0.3512
2840384,2.8228,1.8675,8.9759,-0.0818,-0.0274,0.0061
2840408,1.6759,2.0279,8.9256,-0.1018,0.1034,0.0472
2840432,2.7964,2.5331,9.6199,-0.0783,0.2078,0.2332
2840456,3.292,1.5921,9.1578,-0.1005,0.0901,0.4117
2840480,2.806,2.0542,8.9974,-0.1372,0.0861,0.3123
2840504,3.2992,2.5522,9.5529,-0.0954,0.1476,0.3693
2840528,3.1196,1.9465,9.5744,-0.0413,0.1026,0.4202
2840552,2.8276,1.9297,9.8067,-0.0735,0.029,0.4045
2840576,3.2705,2.5379,8.8873,-0.0695,-0.025,0.3072
2840600,3.9672,2.2146,8.6838,-0.1146,0.0242,0.2148
2840624,5.0566,2.3224,8.9807,-0.0474,-0.1932,0.2262
2840648,4.2641,1.0989,8.7915,-0.053,-0.3296,0.231
2840672,3.122,2.1955,8.8059,0.1428,-0.3046,0.0061
2840696,2.9042,2.7629,9.1028,0.4389,-0.2068,0.1492
2840720,2.5259,1.4102,9.1698,0.8132,-0.2995,0.263
2840744,3.462,1.6017,9.5672,0.506,-0.3091,0.1239
2840768,4.1324,2.1213,8.6718,0.0498,-0.0855,0.3267
2840792,3.62,1.9369,8.7053,-0.0032,-0.0781,0.3552
2840816,4.2114,2.557,8.9184,-0.0099,-0.0365,0.3717
2840840,3.4788,1.9968,8.7867,0.0032,0.0051,0.3515
2840864,4.4293,2.5283,9.2751,-0.0133,0.0597,0.3627
2840888,4.537,2.1859,9.1075,-0.0056,-0.0269,0.3259
2840912,4.3862,1.9058,9.1028,-0.0655,-0.0282,0.2521
2840936,4.5921,2.0375,9.3254,-0.0477,-0.0248,0.0208
2840960,4.695,2.5019,9.2751,-0.056,-0.1159,-0.0195
2840984,4.2713,2.4469,9.2273,0.0112,-0.182,0.0301
2841008,3.7373,1.8004,8.5473,0.0413,-0.1447,-0.0775
2841032,4.0414,2.1787,8.4324,-0.069,-0.0831,0.0448
2841056,4.47,2.4636,8.5473,-0.1207,-0.0738,0.2395
2841080,4.4532,1.5467,8.3438,-0.0192,-0.1202,0.1196
2841104,4.1683,1.5131,8.6215,-0.0815,-0.0418,-0.0285
2841128,4.5586,2.9185,8.8011,-0.0989,-0.0935,0.0677
2841152,4.6878,2.9951,8.6167,-0.0941,-0.1172,0.1871
2841176,5.8371,2.6983,9.2009,-0.0472,-0.2681,0.2705
2841200,4.4915,0.8499,8.4276,0.0786,-0.493,-0.0024
2841224,3.122,1.166,8.1044,0.0075,-0.2894,-0.1937
2841248,3.8235,3.1723,8.9735,-0.122,-0.1724,-0.1303
2841272,4.7573,4.0031,9.1411,-0.057,-0.2803,0.0869
2841296,5.0949,2.3487,8.4372,0.0581,-0.4024,0.2558
2841320,4.5035,1.3503,8.0709,0.0032,-0.4239,0.0821
2841344,4.4772,2.2051,8.4683,-0.0208,-0.4013,-0.1223
2841368,4.1587,2.9497,8.1954,-0.0037,-0.4682,-0.1306
2841392,3.7517,2.7773,7.6974,0.0168,-0.4189,-0.0653
2841416,3.948,2.6025,7.4436,0.0256,-0.2174,-0.0064
2841440,5.0566,2.2122,7.9823,-0.0029,-0.1439,-0.0493
2841464,5.193,2.5474,8.3366,-0.0512,-0.2502,-0.0506
2841488,5.0949,2.4301,8.4443,-0.0906,-0.2878,0.0344
2841512,5.047,2.3439,8.0541,-0.0727,-0.2462,0.0333
2841536,5.0254,2.4948,8.0493,-0.0368,-0.1788,-0.048
2841560,5.2601,3.0598,8.1163,0.0256,-0.1148,-0.0517
2841584,5.9041,2.3032,8.2648,0.0362,-0.1114,0.0426
2841608,6.3039,2.0039,8.0445,-0.0029,-0.2595,0.0506
2841632,5.2481,1.9728,7.355,-0.0501,-0.307,0.0346
2841656,4.9656,2.1955,7.3861,-0.0738,-0.15,0.0568
2841680,5.6168,1.834,8.0373,-0.1039,-0.0384,0.1593
2841704,6.0047,1.7142,8.0373,-0.1855,-0.0546,0.1937
2841728,5.5258,2.6336,7.6184,-0.1514,-0.0663,0.0957
2841752,5.0039,2.6695,7.1299,-0.0533,0.1021,0.1098
2841776,5.5569,2.1117,7.5034,-0.0557,0.3022,0.2481
2841800,6.0478,1.6664,8.2049,-0.1916,0.2092,0.3309
2841824,5.782,2.1308,7.0581,-0.2569,0.2049,0.4199
2841848,5.5952,2.0207,7.9823,-0.2894,0.2561,0.3166
2841872,5.2768,2.8826,8.0517,-0.2878,0.3365,0.3259
2841896,5.6407,3.0813,7.944,-0.1514,0.3539,0.3581
2841920,5.6024,2.1739,8.1283,-0.1066,0.3488,0.413
2841944,5.6216,1.7885,8.3821,-0.1332,0.3134,0.3123
2841968,5.8921,2.0087,8.2241,-0.1351,0.2158,0.214
2841992,5.5067,2.1763,7.9871,-0.1463,0.0842,0.1857
2842016,4.9464,2.411,7.8458,-0.0805,0.13,0.1079
2842040,5.0733,2.0399,8.0014,-0.0799,0.1735,0.0741
2842064,4.8937,1.8986,8.2408,-0.1298,0.1876,0.1066
2842088,4.7549,2.0303,8.4324,-0.117,0.2393,0.0999
2842112,4.877,1.7957,8.4132,-0.121,0.2694,0.1092
2842136,5.0111,1.5754,8.1954,-0.1207,0.2896,0.1119
2842160,4.8937,1.2977,7.9176,-0.1322,0.3299,0.1132
2842184,5.1978,1.2857,8.0613,-0.1572,0.3706,0.0831
2842208,5.8921,1.2594,8.7939,-0.2358,0.3048,0.1386
2842232,5.4181,1.5395,9.1315,-0.2257,0.1479,0.1095
2842256,4.8411,1.7166,8.9208,-0.1316,0.1162,-0.0418
2842280,5.1499,1.6496,8.9304,-0.048,0.1663,-0.0733
2842304,5.4516,1.3815,8.8274,-0.0578,0.0975,-0.1306
2842328,5.2888,1.2689,8.4731,-0.0474,0.0237,-0.1644
2842352,5.0589,1.482,8.3534,-0.025,-0.0048,-0.2081
2842376,5.0757,1.9321,8.4851,-0.0477,-0.0368,-0.0845
2842400,5.1236,1.6592,8.6479,0.0203,-0.0445,0.0975
2842424,4.9656,1.1588,8.3414,0.0434,-0.0493,0.0466
2842448,5.2098,1.2019,8.3989,-0.0757,0.0226,-0.0269
2842472,5.2433,1.3527,8.3534,-0.0751,0.0634,-0.0445
2842496,5.1332,1.494,8.2959,-0.0522,0.0258,-0.1479
2842520,5.1691,1.9058,8.1475,-0.1031,0.0059,-0.0584
2842544,5.1188,2.0039,8.4252,-0.1386,-0.0136,0.0549
2842568,4.7238,1.9968,8.4204,-0.1013,-0.0525,-0.0693
2842592,4.6232,2.2529,8.4132,-0.0741,-0.0293,-0.1303
2842616,4.8363,2.0518,8.6526,-0.0632,0.0226,-0.0861
2842640,5.0278,1.4772,8.8609,-0.0488,-0.0346,-0.1593
2842664,4.5657,1.5514,8.3462,-0.0842,-0.0783,-0.1673
2842688,4.221,1.8028,7.9535,-0.0847,0.0506,-0.0807
2842712,4.9584,1.7286,8.248,-0.1122,0.1242,-0.0072
2842736,5.4324,1.6951,8.6048,-0.1268,0.0525,0.0059
2842760,5.0039,1.7717,8.5904,-0.1162,0.008,-0.0485
2842784,4.9392,2.1739,8.6287,-0.0584,0.0261,-0.0799
2842808,4.9368,1.9154,8.3007,-0.0365,0.0027,-0.0616
2842832,4.8411,1.6688,8.1235,-0.0552,0.0392,-0.0616
2842856,4.8914,1.549,8.5712,-0.073,0.0541,-0.1268
2842880,4.7836,1.9992,8.5401,-0.0834,0.0234,-0.1487
2842904,4.7716,2.2362,8.5258,-0.0416,0.0719,-0.0328
2842928,5.1404,1.901,8.4515,-0.008,0.0815,0.0117
2842952,5.3965,1.4916,8.5449,0.0061,0.0192,0.065
2842976,4.7716,1.6975,8.3294,0.0043,-0.0072,0.0256
2843000,4.8411,2.0399,8.1187,0.0445,0.0189,-0.0013
2843024,5.2457,1.664,8.2001,-0.0253,0.0027,0.0088
2843048,5.0853,1.6305,8.5329,-0.0898,-0.0408,-0.052
2843072,5.0182,1.8794,8.7173,-0.1031,-0.036,-0.0877
2843096,5.0613,1.992,8.5305,-0.1191,-0.0245,-0.0602
2843120,5.1092,2.2889,8.7269,-0.1098,-0.0333,-0.0389
2843144,5.1044,1.9537,8.3558,-0.0805,-0.0237,-0.0432
2843168,4.8219,1.7909,8.2552,-0.0679,0.0035,-0.1511
2843192,5.0566,2.0039,8.3989,-0.0893,0.0224,-0.1543
2843216,5.2146,1.8986,8.2935,-0.1098,0.0016,-0.0586
2843240,4.9201,1.9992,8.2959,-0.0999,0.0107,-0.0682
2843264,5.2601,2.1165,8.4587,-0.0719,0.0485,-0.1172
2843288,5.6503,1.9609,8.6024,-0.0584,-0.0021,-0.1053
2843312,5.023,1.7645,8.5401,-0.0783,-0.0304,-0.1484
2843336,5.2553,2.0016,8.4276,-0.0733,-0.0232,-0.2297
2843360,5.387,1.8771,8.351,-0.1154,-0.0538,-0.1468
2843384,4.9368,2.2098,8.327,-0.1234,-0.0727,-0.1663
2843408,4.9368,2.1763,8.3917,-0.0927,-0.0605,-0.2172
2843432,4.64,2.0901,8.2361,-0.1074,-0.0325,-0.2105
2843456,4.4628,2.2553,8.011,-0.0994,0.0333,-0.2313
2843480,5.0182,2.2075,8.3677,-0.1034,0.0933,-0.1588
2843504,5.3774,2.1787,8.4563,-0.0858,0.0293,-0.1514
2843528,5.102,2.229,7.9847,-0.0669,-0.036,-0.2004
2843552,5.3271,2.0087,8.2265,-0.0759,-0.0485,-0.2148
2843576,4.7836,1.9585,8.2025,-0.0733,-0.0866,-0.2798
2843600,4.379,2.3224,8.2001,-0.0842,-0.0663,-0.2651
2843624,4.5993,2.3439,8.1977,-0.1071,0.0011,-0.1255
2843648,4.6974,2.5115,8.2384,-0.0901,0.0104,-0.0456
2843672,4.6711,2.3727,8.1379,-0.0778,0.0277,0.0072
2843696,4.944,1.9058,8.2456,-0.1026,0.0133,0.0517
2843720,4.8147,2.1141,8.1714,-0.1303,0.0173,0.0229
2843744,4.8363,2.5905,8.3151,-0.1348,0.0426,0.0301
2843768,4.944,2.4972,8.5784,-0.1482,0.0544,0.1487
2843792,5.0254,1.98,8.5688,-0.134,0.0269,0.134
2843816,4.9105,1.9082,8.2169,-0.121,0.0248,-0.033
2843840,4.9775,2.4086,8.2169,-0.0967,0.045,-0.1058
2843864,4.9177,2.4062,8.2815,-0.0629,0.0552,-0.085
2843888,5.1188,2.1763,8.5329,-0.0741,0.0301,-0.0658
2843912,5.0398,2.2817,8.4731,-0.0725,-0.0354,-0.0482
2843936,4.6783,2.1739,8.078,-0.0954,-0.0541,0.0376
2843960,4.719,1.9752,8.2408,-0.1108,-0.0101,0.0746
2843984,4.7381,2.0901,8.26,-0.0973,0.0181,0.0743
2844008,4.8411,1.9728,8.1786,-0.1061,0.0608,0.1343
2844032,5.1834,2.0446,8.4587,-0.1468,0.0424,0.2161
2844056,5.1571,2.1356,8.3989,-0.1599,0.02,0.2497
2844080,5.3415,2.2889,8.5162,-0.1252,0.0091,0.2068
2844104,5.3702,2.1668,8.4874,-0.0898,-0.044,0.141
2844128,5.3319,2.2122,8.3989,-0.081,-0.0794,0.1186
2844152,5.2074,2.2529,8.2528,-0.0738,-0.1178,0.0805
2844176,4.8339,2.3056,8.0685,-0.0341,-0.0922,0.0093
2844200,5.0685,2.1045,8.1092,-0.0333,-0.0466,0.0133
2844224,5.1308,1.9106,8.1547,-0.0807,-0.0538,0.1002
2844248,5.1308,2.0159,8.1547,-0.0735,-0.0165,0.0807
2844272,5.3295,2.0207,8.1139,-0.0298,0.0256,-0.0029
2844296,5.7293,2.0039,8.2863,-0.0429,0.0085,-0.0218
2844320,5.6671,2.071,8.3534,-0.0626,-0.0458,0.0131
2844344,5.6192,2.0686,8.3558,-0.0301,-0.0626,-0.0669
2844368,5.6719,2.0494,8.3893,-0.0384,-0.117,-0.0797
2844392,5.4229,2.1284,8.0852,-0.0522,-0.1335,-0.02
2844416,5.4564,1.8962,8.0996,-0.0613,-0.1258,-0.0285
2844440,5.3534,1.9968,8.0493,-0.0711,-0.1292,-0.0413
2844464,5.2648,2.2553,8.0397,-0.0719,-0.1114,0.0037
2844488,5.4133,2.0758,8.0637,-0.0914,-0.1194,0.056
2844512,5.205,2.0327,7.8362,-0.1021,-0.1095,0.0578
2844536,5.2577,2.1308,7.908,-0.0807,-0.0413,-0.0144
2844560,5.7604,2.3176,7.9392,-0.0693,-0.0506,-0.0059
2844584,5.5593,2.3272,8.2265,-0.0549,-0.0738,0.0498
2844608,5.8873,2.2697,8.078,-0.0266,-0.1282,0.1175
2844632,5.9376,1.6688,7.8937,-0.0613,-0.2089,0.2244
2844656,5.7748,1.4581,7.9535,-0.1146,-0.2971,0.0858
2844680,5.0685,2.0806,7.6303,-0.15,-0.2683,-0.0562
2844704,4.8866,2.229,7.501,-0.0917,-0.0677,-0.1772
2844728,5.8945,2.1572,8.09,-0.1031,-0.008,-0.1615
2844752,5.7652,2.1452,7.8626,-0.1228,-0.0695,-0.117
2844776,5.6455,2.1284,7.7285,-0.1085,-0.0541,-0.1689
2844800,5.9161,1.9441,7.8027,-0.1167,-0.0498,-0.1298
2844824,6.2393,2.0877,8.0182,-0.1348,-0.1151,-0.1069
2844848,6.1531,2.1835,7.829,-0.1282,-0.247,-0.0509
2844872,6.1268,1.9201,7.8482,-0.1479,-0.3275,-0.0405
2844896,6.2896,2.0423,7.8171,-0.1708,-0.3858,0.0488
2844920,6.5577,2.2553,8.0996,-0.1924,-0.5092,0.113
2844944,6.7876,2.5953,8.023,-0.2054,-0.7352,0.3083
2844968,7.0054,2.1883,7.6184,-0.1687,-0.9385,0.4455
2844992,6.0717,0.984,7.0629,-0.1871,-0.9105,0.2934
2845016,6.1794,1.0199,6.5338,-0.2204,-0.6355,-0.0653
2845040,6.9456,1.5131,6.9408,-0.2593,-0.4962,-0.1788
2845064,7.015,2.3487,6.8857,-0.2646,-0.5465,-0.1479
2845088,6.6846,2.4517,6.6391,-0.1823,-0.5329,-0.0221
2845112,6.9216,2.0087,6.766,-0.1066,-0.4303,0.0288
2845136,7.3502,1.7502,7.015,-0.1151,-0.4178,0.044
2845160,7.8458,1.8028,6.8378,-0.1311,-0.4703,-0.0301
2845184,7.9583,1.3719,6.6966,-0.2193,-0.6531,-0.118
2845208,7.4172,1.3647,6.2776,-0.3102,-0.7482,-0.312
2845232,7.2664,2.2745,5.9376,-0.3094,-0.7178,-0.4815
2845256,7.8769,2.8491,5.6407,-0.2097,-0.7171,-0.4234
2845280,9.1051,2.0135,5.3439,-0.1617,-0.9148,-0.4109
2845304,9.3829,1.1947,4.9704,-0.2238,-1.2569,-0.4186
2845328,9.3398,0.644,5.4085,-0.3853,-1.5396,-0.3744
2845352,9.3254,1.3048,5.7868,-0.5697,-1.7632,-0.3373
2845376,8.5784,2.5259,5.3822,-0.481,-1.9425,-0.4527
2845400,8.2696,2.6983,4.9871,-0.2582,-1.9737,-0.4343
2845424,8.9136,1.2402,4.6974,-0.1593,-1.9313,-0.2281
2845448,9.6199,0.0024,5.2816,-0.3901,-2.0691,-0.2233
2845472,9.2153,1.0726,5.1787,-0.761,-2.2298,-0.1839
2845496,8.0469,3.1771,3.5314,-0.7504,-2.0131,-0.0927
2845520,7.6519,4.4101,2.0542,-0.3461,-1.3051,-0.323
2845544,9.4044,3.1244,2.5307,-0.0346,-0.9094,-0.5963
2845568,10.4842,1.4676,2.8443,-0.1455,-0.9987,-0.9286
2845592,9.7683,1.6257,2.1979,-0.4018,-1.1487,-1.0008
2845616,9.3565,1.5706,1.8771,-0.5708,-1.1199,-0.8497
2845640,9.481,1.652,2.1524,-0.7554,-1.2076,-0.6734
2845664,8.7221,2.9401,1.9417,-0.8037,-1.3041,-0.5601
2845688,7.7548,4.1252,1.0247,-0.615,-1.129,-0.4778
2845712,7.865,4.4484,0.6943,-0.3222,-0.8045,-0.2934
2845736,8.4898,3.7038,0.7326,-0.0823,-0.5343,-0.0285
2845760,8.9615,2.6624,0.7661,-0.0834,-0.4338,0.1652
2845784,8.5976,2.7773,0.4118,-0.2012,-0.3331,0.2361
2845808,8.7005,3.4261,0.0575,-0.174,-0.1895,0.2779
2845832,8.8011,3.4812,0.0096,-0.1069,-0.0269,0.381
2845856,8.9064,3.292,0.3208,-0.0136,0.0597,0.2337
2845880,9.1746,4.4053,0.7135,0.0485,0.1583,-0.0368
2845904,9.5648,3.237,-0.3639,0.1948,0.1668,0.0973
2845928,9.5385,3.0718,0.0479,0.2076,0.1399,0.097
2845952,9.4212,2.7892,0.0694,0.1708,0.1402,0.1069
2845976,9.4715,3.1532,0.3519,0.1356,0.1783,0.1122
2846000,9.6965,3.146,0.3472,0.2236,0.1215,-0.0866
2846024,9.4212,2.7557,-0.0311,0.2065,0.06,-0.2124
2846048,9.7013,2.5139,0.1437,0.0746,0.0845,-0.0999
2846072,10.0509,2.4588,0.4621,-0.0839,0.0525,0.0482
2846096,11.1091,1.8435,1.4533,-0.1266,-0.2545,0.0469
2846120,10.2592,2.4636,1.2043,-0.2364,-0.5534,0.1087
2846144,9.3877,2.8395,0.1053,-0.2033,-0.5348,0.0568
2846168,8.7293,3.1173,-0.5076,-0.1532,-0.4202,0.0075
2846192,8.5473,3.4189,-0.8092,-0.0642,-0.218,0.1061
2846216,8.8753,2.6193,-0.3376,-0.0949,-0.0344,0.2654
2846240,9.0381,2.8443,-0.1532,-0.1335,0.0554,0.3885
2846264,9.3063,2.873,-0.3208,-0.0546,0.1348,0.4541
2846288,9.4571,2.6073,-0.4334,-0.0522,0.1412,0.4732
2846312,9.6606,2.3104,-0.1628,-0.049,0.1713,0.4796
2846336,9.8809,2.5426,-0.1939,-0.0637,0.1311,0.315
2846360,9.6606,2.3511,-0.2131,-0.0104,0.2201,0.255
2846384,9.7516,2.411,-0.2825,-0.0293,0.2832,0.2137
2846408,10.2017,2.241,0.0287,-0.0069,0.2686,0.1671
2846432,10.1969,2.1308,0.3639,-0.0128,0.1106,0.0711
2846456,9.8976,2.3367,0.1508,-0.0104,0.0408,0.0298
2846480,10.0556,2.2936,0.1197,0.0376,0.0168,0.0069
2846504,9.6702,2.0997,-0.0287,0.0144,-0.0778,-0.004
2846528,9.3661,2.1308,-0.3663,-0.0059,-0.0549,0.0128
2846552,9.3972,2.1284,-0.3376,-0.0325,0.012,0.0837
2846576,9.5912,2.1524,-0.17,-0.0581,0.069,0.0863
2846600,9.8162,2.1907,-0.012,-0.0496,0.0802,0.0717
2846624,9.7971,2.1739,0.0503,-0.0309,0.0485,0.073
2846648,9.7492,2.2027,-0.0766,-0.0133,0.0426,0.109
2846672,9.9383,1.9369,0.0551,-0.0141,0.0296,0.0807
2846696,9.924,1.9106,0.0048,-0.0618,-0.0192,0.0682
2846720,9.8665,1.8364,-0.0886,-0.0658,0.0213,0.0501
2846744,9.9264,1.7621,-0.0072,-0.0941,0.0477,0.0163
2846768,9.8952,1.9441,-0.0407,-0.0941,0.041,-0.0234
2846792,9.8521,1.8914,0.0024,-0.1045,0.028,-0.0261
2846816,9.7181,1.9728,-0.0048,-0.1236,0.0181,-0.0245
2846840,9.6391,2.1955,0.0192,-0.113,0.0144,-0.0077
2846864,9.5577,2.2697,-0.0575,-0.0706,0.0181,0.0245
2846888,9.5553,2.1668,-0.1077,-0.0282,0.0426,0.0381
2846912,9.5337,2.0614,-0.1149,-0.0117,0.0365,0.0445
2846936,9.6534,2.1093,-0.1532,-0.0083,0.0067,0.0456
2846960,9.6582,2.0255,-0.1748,-0.0136,-0.0045,0.1007
2846984,9.742,1.8483,-0.1772,-0.0171,0.0392,0.1085
2847008,10.0197,1.6328,-0.0335,-0.0333,0.049,0.1092
2847032,10.0221,1.5778,0.0239,-0.0693,0.0011,0.0866
2847056,9.8569,1.6544,-0.103,-0.1002,-0.0099,0.0597
2847080,9.8976,1.8076,-0.0982,-0.1223,0.0189,0.0562
2847104,9.9168,1.8675,0.0239,-0.1287,0.0357,0.0565
2847128,9.8785,1.8962,0.0503,-0.1223,0.0208,0.0317
2847152,9.742,2.0638,0.0359,-0.1154,0.0195,-0.0117
2847176,9.73,2.1931,-0.0982,-0.0679,0.0362,-0.0064
2847200,9.8306,1.8076,-0.1389,-0.0442,0.057,-0.0075
2847224,9.9886,1.7095,-0.0766,-0.0829,0.0461,-0.0485
2847248,10.0293,1.8866,-0.0527,-0.1116,0.0107,-0.0919
2847272,10.0628,1.8842,0.0479,-0.1031,-0.0538,-0.1495
2847296,9.9599,1.889,-0.0359,-0.1132,-0.1372,-0.1876
2847320,9.7827,1.9561,-0.1484,-0.122,-0.2121,-0.203
2847344,9.5888,1.9537,-0.2801,-0.1092,-0.1929,-0.1764
2847368,9.4236,2.0542,-0.4022,-0.0999,-0.121,-0.1135
2847392,9.4308,2.0638,-0.4429,-0.0887,-0.0123,-0.0296
2847416,9.6079,2.0039,-0.2777,-0.0914,0.0592,0.0147
2847440,9.9503,1.9752,-0.012,-0.0845,0.0189,0.0104
2847464,9.9168,1.9704,-0.0431,-0.0917,-0.0711,-0.0045
2847488,9.6917,2.0686,-0.1939,-0.0975,-0.1039,-0.0328
2847512,9.517,2.2027,-0.4166,-0.0805,-0.0714,-0.0032
2847536,9.5217,2.1572,-0.4597,-0.0629,0.0226,0.0389
2847560,9.9431,2.0039,-0.2298,-0.044,0.0791,0.029
2847584,10.058,1.8962,-0.2227,-0.0629,-0.0088,-0.0029
2847608,9.6678,2.0111,-0.486,-0.0871,-0.0091,-0.0051
2847632,9.7061,2.0494,-0.4334,-0.0965,0.0296,-0.0123
2847656,9.7085,2.0207,-0.3687,-0.1034,0.0384,0.004
2847680,9.6917,2.059,-0.3831,-0.1005,0.061,0.0179
2847704,9.7348,2.1117,-0.4238,-0.0866,0.0879,0.0362
2847728,9.9288,1.9824,-0.2969,-0.0738,0.0898,0.0322
2847752,10.1562,1.8627,-0.1748,-0.0853,0.0226,-0.0072
2847776,9.8426,1.9321,-0.3304,-0.1098,-0.0229,-0.0336
2847800,9.7731,2.0255,-0.3424,-0.1055,-0.0101,-0.065
2847824,9.833,2.0542,-0.2969,-0.1058,-0.0266,-0.0648
2847848,9.8809,2.0135,-0.2466,-0.0978,-0.0485,-0.0847
2847872,9.8019,2.1021,-0.3496,-0.0909,-0.1199,-0.0858
2847896,9.5984,2.0614,-0.5267,-0.0919,-0.0975,-0.0698
2847920,9.6893,1.9465,-0.4381,-0.105,-0.0711,-0.073
2847944,9.845,2.0135,-0.3496,-0.138,-0.0989,-0.0743
2847968,9.7755,2.1955,-0.4022,-0.1391,-0.1498,-0.0671
2847992,9.6319,2.1787,-0.486,-0.1255,-0.1553,-0.0562
2848016,9.6798,2.1596,-0.5459,-0.1159,-0.1356,-0.0597
2848040,9.7779,2.0782,-0.4717,-0.1252,-0.1444,-0.0725
2848064,10.0772,2.1308,-0.3639,-0.1423,-0.1964,-0.1178
2848088,10.1203,2.2218,-0.5291,-0.1364,-0.3254,-0.1383
2848112,9.6391,2.1069,-1.0295,-0.1471,-0.3648,-0.1359
2848136,9.5577,2.0782,-1.1037,-0.1929,-0.3118,-0.1524
2848160,9.4308,2.3607,-1.0989,-0.2294,-0.2617,-0.1271
2848184,9.3541,2.6049,-1.1468,-0.1916,-0.1895,-0.0834
2848208,9.4403,2.5474,-1.1468,-0.1412,-0.1386,-0.0496
2848232,9.3326,2.5809,-1.2282,-0.1061,-0.0935,-0.02
2848256,9.7947,2.3798,-0.9936,-0.0695,-0.0533,-0.0171
2848280,10.1634,2.2434,-0.8643,-0.061,-0.1721,-0.0573
2848304,9.8904,2.3559,-1.1875,-0.053,-0.2686,-0.1103
2848328,9.7061,2.229,-1.3982,-0.0626,-0.2846,-0.1407
2848352,9.5744,2.3343,-1.5562,-0.1066,-0.2633,-0.1809
2848376,9.5146,2.5402,-1.7214,-0.1572,-0.2427,-0.1111
2848400,9.7348,2.4134,-1.7238,-0.2225,-0.2188,-0.0192
2848424,9.7372,2.8539,-1.7957,-0.2292,-0.1953,-0.0965
2848448,9.9144,2.7916,-1.9968,-0.053,-0.1847,-0.1996
2848472,9.7899,2.2051,-2.0183,-0.0565,-0.1911,-0.2345
2848496,9.7109,2.3727,-1.992,-0.1364,-0.2342,-0.2094
2848520,9.9311,2.1213,-1.8675,-0.2382,-0.2934,-0.2438
2848544,10.0365,2.4612,-1.8172,-0.3373,-0.4445,-0.2843
2848568,9.5433,2.7509,-2.0351,-0.373,-0.5321,-0.3421
2848592,9.5026,2.8994,-2.0901,-0.3784,-0.497,-0.4005
2848616,9.5768,3.0478,-2.0063,-0.3936,-0.534,-0.4474
2848640,10.0604,3.2034,-1.8076,-0.4258,-0.6478,-0.4002
2848664,9.3446,3.1795,-2.2625,-0.3749,-0.7826,-0.4354
2848688,9.5217,2.8683,-2.4397,-0.4088,-0.8194,-0.4708
2848712,9.1842,3.0718,-2.6815,-0.5073,-0.8204,-0.4767
2848736,9.3278,3.0263,-2.6169,-0.558,-0.8076,-0.4666
2848760,9.4068,3.1149,-2.636,-0.7019,-0.9494,-0.408
2848784,8.4803,3.4716,-3.0167,-0.7464,-0.9619,-0.4951
2848808,8.2504,3.9073,-3.2968,-0.7131,-0.8271,-0.5364
2848832,8.5353,3.8738,-3.0358,-0.712,-0.7634,-0.5385
2848856,8.3222,4.3287,-3.2082,-0.7101,-0.7541,-0.567
2848880,8.2097,4.4532,-3.292,-0.7147,-0.7128,-0.5505
2848904,8.1523,4.5346,-3.3974,-0.7005,-0.6518,-0.607
2848928,7.8841,4.6088,-3.316,-0.6949,-0.5596,-0.7717
2848952,8.2145,4.944,-3.0622,-0.6971,-0.5033,-0.8732
2848976,8.758,5.047,-2.5833,-0.7144,-0.7898,-1.0014
2849000,7.7165,5.8682,-3.1388,-0.6603,-1.0062,-0.9465
2849024,6.2632,6.1842,-3.9241,-0.5241,-0.9134,-0.9334
2849048,5.7676,6.1675,-4.0797,-0.4114,-0.591,-0.9646
2849072,6.4596,6.5074,-3.723,-0.3515,-0.4575,-0.854
2849096,6.0597,6.7469,-3.9265,-0.2539,-0.4916,-0.6038
2849120,6.1268,6.4212,-4.0175,-0.0895,-0.3976,-0.5995
2849144,6.4284,6.5577,-3.8259,0.0413,-0.3571,-0.667
2849168,6.2632,6.6272,-4.0965,0.1239,-0.3912,-0.5686
2849192,6.0142,6.4284,-4.1204,0.1391,-0.4274,-0.5063
2849216,5.928,6.6367,-4.3311,0.1801,-0.3877,-0.4146
2849240,6.4332,6.5577,-4.2665,0.238,-0.4354,-0.3254
2849264,6.62,6.3255,-4.2497,0.2451,-0.6355,-0.3896
2849288,6.3686,6.5673,-4.5825,0.2633,-0.8295,-0.5668
2849312,5.284,6.5888,-5.1308,0.2292,-0.9113,-0.4716
2849336,4.4197,6.7421,-5.3965,0.226,-0.7797,-0.3954
2849360,5.6767,6.8019,-5.047,0.2356,-0.6584,-0.2846
2849384,7.0318,6.7253,-4.4987,0.1769,-1.0781,0.0426
2849408,4.9009,6.5529,-5.6599,0.2022,-1.4573,0.0211
2849432,2.6073,7.0246,-6.5362,0.3738,-1.1487,-0.2534
2849456,2.2577,6.9599,-6.8354,0.5345,-0.547,-0.15
2849480,2.8515,6.2369,-6.936,0.5891,-0.0314,-0.0554
2849504,4.4149,5.782,-6.4667,0.5233,0.2681,-0.0282
2849528,6.7205,5.7317,-5.5426,0.3792,-0.0168,0.1735
2849552,5.9568,5.7964,-6.2321,0.2846,-0.4503,0.2457
2849576,4.2234,5.8658,-7.1994,0.2236,-0.4884,0.1916
2849600,3.5434,5.6838,-7.4843,0.1492,-0.227,0.0637
2849624,3.6871,5.7772,-7.2712,0.0501,0.0773,-0.0341
2849648,4.9392,6.1675,-6.5697,0.0333,0.2028,-0.0677
2849672,6.3973,5.9209,-5.8586,0.0232,-0.0757,-0.0056
2849696,4.9153,5.8035,-6.6343,-0.0663,-0.3704,0.1116
2849720,3.4333,5.9711,-7.3502,-0.1045,-0.2441,0.0389
2849744,3.395,6.0765,-7.2018,-0.1191,0.0123,0.0187
2849768,3.7565,6.0837,-6.9599,-0.093,0.2134,-0.0208
2849792,4.4796,6.0454,-6.5553,-0.0759,0.2968,-0.0314
2849816,4.8818,6.1651,-6.4284,-0.0597,0.206,0.0173
2849840,4.2641,6.1603,-6.7373,-0.0402,0.166,0.1116
2849864,4.0318,5.9999,-6.9192,-0.0117,0.2723,0.1591
2849888,4.8411,5.7796,-6.6726,0.0229,0.3653,0.1809
2849912,5.7844,5.4396,-6.4236,0.0226,0.2707,0.1668
2849936,5.5976,5.4277,-6.608,-0.0221,0.0919,0.1226
2849960,4.7597,5.636,-6.9791,-0.0573,0.0488,0.1327
2849984,4.4436,5.6767,-7.0318,-0.0528,0.1609,0.0986
2850008,4.6064,5.8442,-6.7445,-0.0312,0.2598,0.0669
2850032,4.8578,5.873,-6.5338,0.0147,0.2886,0.0794
2850056,5.1643,5.7509,-6.3734,0.0549,0.2731,0.1085
2850080,5.351,5.6982,-6.4524,0.049,0.2177,0.1431
2850104,5.1236,5.6407,-6.699,0.0413,0.1969,0.1458
2850128,5.1427,5.6288,-6.7229,0.0266,0.2302,0.0773
2850152,5.2122,5.5857,-6.6607,-0.0123,0.2403,0.101
2850176,5.1882,5.5474,-6.5649,-0.0266,0.2593,0.1124
2850200,5.3367,5.612,-6.3901,-0.0208,0.2627,0.097
2850224,5.3893,5.4971,-6.3829,-0.0141,0.2441,0.0826
2850248,5.3486,5.4779,-6.4931,-0.0147,0.2614,0.0328
2850272,5.2457,5.6312,-6.5841,-0.0069,0.3059,0.0264
2850296,5.3032,5.4971,-6.6128,0.0144,0.368,0.0394
2850320,5.2888,5.3175,-6.5074,-0.0088,0.4199,0.0946
2850344,5.6934,5.0278,-6.6008,-0.077,0.4567,0.1556
2850368,5.7413,5.8083,-6.1292,-0.053,0.4327,0.1537
2850392,5.7341,5.3822,-6.2513,0.0131,0.4357,0.1492
2850416,5.5354,5.0853,-6.3518,-0.0362,0.4594,0.1911
2850440,5.1906,5.3989,-6.4524,-0.0829,0.5516,0.2939
2850464,4.9392,5.6312,-6.4308,-0.0554,0.7325,0.4061
2850488,5.2672,5.4061,-6.3303,0.0373,0.9763,0.4287
2850512,6.3375,5.0182,-5.7509,0.1098,1.1703,0.2806
2850536,7.2568,4.9321,-5.4085,0.0943,1.1085,0.2134
2850560,7.6854,4.9153,-5.1906,0.0701,0.8903,0.2353
2850584,7.4005,4.8914,-5.2864,0.0826,0.7035,0.2419
2850608,6.8785,4.8147,-5.4971,0.1066,0.6542,0.2665
2850632,6.8426,4.5226,-5.5498,0.0975,0.7274,0.3056
2850656,7.2281,4.3359,-5.2146,0.0245,0.7338,0.3539
2850680,7.5681,4.5226,-4.9249,-0.0352,0.6574,0.3976
2850704,7.8051,4.5777,-4.7501,-0.0306,0.5958,0.4269
2850728,7.8051,4.5514,-4.7764,0.0101,0.547,0.3371
2850752,7.7213,4.4676,-4.8195,0.0298,0.5497,0.2545
2850776,7.5082,4.5418,-4.9273,0.0552,0.6006,0.1748
2850800,7.6351,4.4317,-4.7118,0.0709,0.6936,0.2166
2850824,7.8243,4.1539,-4.5921,0.0474,0.7373,0.2609
2850848,7.7764,4.118,-4.391,0.0029,0.7669,0.2577
2850872,7.4819,4.3383,-4.4796,0.0216,0.9265,0.352
2850896,7.6279,4.0462,-4.2066,0.0466,1.2073,0.6017
2850920,7.9823,3.8882,-3.7757,0.0424,1.4338,0.7639
2850944,8.4707,3.486,-3.5698,0.0115,1.5018,0.7576
2850968,8.849,3.2777,-3.201,-0.0293,1.5191,0.647
2850992,9.1411,3.5458,-2.794,0.0112,1.4978,0.5364
2851016,9.3589,3.316,-2.2745,0.101,1.3947,0.4237
2851040,9.1842,3.0287,-2.0111,0.1306,1.3339,0.2635
2851064,10.0604,3.3519,-1.6376,0.0517,1.1818,0.2515
2851088,9.3925,3.0694,-1.8076,0.0709,0.8162,0.227
2851112,9.5217,3.0191,-1.664,0.0573,0.7618,0.2494
2851136,9.663,2.6576,-1.4246,0.0253,0.7107,0.2411
2851160,9.6941,2.794,-1.3958,0.0037,0.6097,0.15
2851184,9.742,2.9401,-1.3048,0.0053,0.5076,0.1148
2851208,9.7731,2.8778,-1.1277,0.0053,0.4263,0.1274
2851232,9.7444,2.7773,-1.1013,-0.0245,0.34,0.1111
2851256,9.6965,2.9018,-1.166,-0.0269,0.2886,0.081
2851280,9.7995,2.8228,-1.1061,-0.0171,0.2681,0.0741
2851304,9.9168,2.6983,-0.972,-0.0045,0.2582,0.0149
2851328,10.2065,2.5857,-0.7685,-0.0149,0.1879,-0.069
2851352,10.0078,2.6193,-0.8835,-0.0584,0.0392,-0.1031
2851376,9.7109,2.7461,-1.0343,-0.0783,-0.0197,-0.109
2851400,9.596,2.7581,-1.0223,-0.0741,-0.0117,-0.1021
2851424,9.5696,2.7342,-1.008,-0.0855,-0.0165,-0.0709
2851448,9.5074,2.8132,-1.0774,-0.0823,-0.0261,-0.0501
2851472,9.5696,2.8036,-1.087,-0.0863,-0.0232,-0.0208
2851496,9.6726,2.7725,-1.0487,-0.0901,-0.0546,-0.0179
2851520,9.7564,2.7557,-1.0582,-0.1212,-0.1319,-0.0338
2851544,9.6534,2.9353,-1.0798,-0.1404,-0.1927,-0.0482
2851568,9.4882,3.0047,-1.2115,-0.1162,-0.1767,-0.0573
2851592,9.7636,2.8706,-0.9816,-0.0887,-0.1977,-0.0906
2851616,11.1115,2.6264,-0.1891,-0.0967,-0.6102,-0.3155
2851640,10.2879,3.0526,-1.0367,-0.1191,-1.0944,-0.4431
2851664,8.983,3.2848,-2.2529,-0.0991,-1.0456,-0.4602
2851688,8.3031,3.3279,-2.5546,-0.1226,-0.7003,-0.3962
2851712,8.655,3.1699,-2.308,-0.1711,-0.4301,-0.2902
2851736,9.1291,3.3902,-1.992,-0.214,-0.4652,-0.2561
2851760,8.9878,3.7014,-2.1907,-0.1881,-0.4975,-0.1697
2851784,8.6359,3.7254,-2.5259,-0.1378,-0.4082,-0.1242
2851808,8.497,3.5003,-2.6312,-0.1228,-0.2054,-0.0743
2851832,8.7364,3.462,-2.5019,-0.1183,-0.0392,-0.0719
2851856,9.1171,3.541,-2.3296,-0.1114,0.0104,-0.06
2851880,9.3087,3.5099,-2.1691,-0.0997,-0.0874,-0.0973
2851904,9.1411,3.5698,-2.3248,-0.0842,-0.1588,-0.118
2851928,8.8801,3.5937,-2.5905,-0.0751,-0.1455,-0.1135
2851952,8.6766,3.5865,-2.7629,-0.0965,-0.0709,-0.0829
2851976,8.5808,3.7589,-2.8108,-0.1082,0.0258,-0.0173
2852000,8.7652,3.7134,-2.66,-0.0965,0.1015,0.0384
2852024,8.9064,3.6488,-2.5762,-0.0845,0.1191,0.0634
2852048,9.0668,3.5793,-2.4924,-0.0863,0.11,0.0576
2852072,9.2177,3.4907,-2.4493,-0.0959,0.0786,0.025
2852096,9.2249,3.5745,-2.4732,-0.0946,0.0453,-0.0245
2852120,9.1339,3.5291,-2.5067,-0.0986,0.0317,-0.0416
2852144,9.0214,3.5889,-2.569,-0.1138,0.0408,-0.0354
2852168,8.9663,3.5745,-2.5498,-0.1162,0.0632,-0.0195
2852192,8.9639,3.5626,-2.4517,-0.138,0.069,-0.0035
2852216,9.177,3.6631,-2.241,-0.133,0.037,-0.0322
2852240,9.2416,3.6919,-2.2625,-0.093,-0.04,-0.0645
2852264,8.7604,3.7062,-2.6097,-0.0778,-0.056,-0.0472
2852288,8.7125,3.5745,-2.5929,-0.0821,0.0261,-0.0165
2852312,8.8969,3.6176,-2.4948,-0.1029,0.0589,0.0197
2852336,8.9256,3.6655,-2.4445,-0.1002,0.0655,0.0253
2852360,8.9591,3.6895,-2.4229,-0.1037,0.077,0.0237
2852384,9.0261,3.7038,-2.3727,-0.0975,0.0794,-0.0008
2852408,9.0357,3.6727,-2.4086,-0.0903,0.0794,-0.0309
2852432,9.1363,3.6559,-2.3583,-0.0885,0.0781,-0.0735
2852456,9.0501,3.6464,-2.4205,-0.1026,0.0576,-0.0853
2852480,8.9711,3.6966,-2.5091,-0.113,0.0626,-0.0901
2852504,8.9447,3.7445,-2.478,-0.1228,0.0719,-0.0917
2852528,8.9519,3.7828,-2.4205,-0.1279,0.0706,-0.0799
2852552,8.983,3.7733,-2.4038,-0.1242,0.0719,-0.0831
2852576,8.995,3.79,-2.3583,-0.1103,0.0741,-0.0765
2852600,9.0285,3.7206,-2.3128,-0.1026,0.0687,-0.0746
2852624,9.0142,3.6559,-2.308,-0.1015,0.0506,-0.077
2852648,8.8729,3.632,-2.3535,-0.1199,0.0394,-0.0586
2852672,8.825,3.7852,-2.3822,-0.1314,0.0701,-0.036
2852696,9.0668,3.7302,-2.3104,-0.1298,0.0799,-0.0168
2852720,9.1243,3.6368,-2.2434,-0.1545,0.0528,-0.0165
2852744,9.0764,3.7182,-2.2625,-0.1735,0.045,-0.0325
2852768,8.9519,3.7685,-2.2434,-0.1737,0.0496,-0.024
2852792,8.8011,3.869,-2.2242,-0.1716,0.0703,-0.0296
2852816,8.7484,4.0821,-2.2122,-0.1556,0.0826,-0.016
2852840,8.7939,4.1204,-2.1859,-0.1066,0.0933,0.0179
2852864,8.9519,3.9504,-2.1668,-0.0722,0.0935,0.0296
2852888,9.0261,3.7828,-2.1404,-0.0759,0.0911,0.0056
2852912,9.0429,3.8068,-2.1548,-0.0898,0.0877,-0.0205
2852936,8.983,3.7996,-2.1069,-0.101,0.0861,-0.0253
2852960,8.8873,3.8403,-2.0494,-0.0997,0.0861,-0.0181
2852984,8.8178,3.8523,-2.1141,-0.0861,0.0917,0.0136
2853008,8.8681,3.8786,-2.1117,-0.0751,0.1055,0.049
2853032,8.9807,3.8475,-2.0997,-0.0613,0.1143,0.0642
2853056,8.9974,3.7613,-2.0782,-0.0661,0.1172,0.049
2853080,9.0836,3.7876,-2.0207,-0.0733,0.1111,0.0485
2853104,9.0477,3.7972,-2.0423,-0.0767,0.0986,0.0562
2853128,9.0716,3.6703,-2.0423,-0.0805,0.1053,0.0432
2853152,8.9304,3.6559,-2.083,-0.1082,0.0989,0.0061
2853176,8.7963,3.9121,-2.0877,-0.1282,0.1215,-0.0112
2853200,8.9591,4.0869,-1.9656,-0.0855,0.1599,0.0437
2853224,9.074,3.8331,-1.8723,-0.053,0.1442,0.0754
2853248,9.074,3.7421,-1.889,-0.0557,0.1412,0.0442
2853272,9.153,3.7876,-1.8076,-0.0552,0.1418,0.0147
2853296,9.1291,3.7517,-1.8627,-0.0378,0.1194,0.0192
2853320,8.9854,3.6464,-1.98,-0.0266,0.1218,0.0346
2853344,8.9998,3.5937,-1.9489,-0.044,0.1428,0.0541
2853368,9.0621,3.6919,-1.9201,-0.0634,0.1559,0.0706
2853392,9.0621,3.735,-1.8292,-0.052,0.1761,0.0597
2853416,9.0309,3.7565,-1.7957,-0.0314,0.1881,0.0584
2853440,8.916,3.7278,-1.8364,-0.0131,0.234,0.0554
2853464,8.8801,3.7062,-1.81,-0.0083,0.2979,0.089
2853488,9.007,3.7565,-1.7549,0.0136,0.3693,0.1492
2853512,9.0788,3.5027,-1.561,0.0226,0.409,0.1657
2853536,8.9639,3.486,-1.5083,0.0218,0.4314,0.1114
2853560,8.667,3.7733,-1.6161,0.0349,0.477,0.1047
2853584,8.2935,3.8595,-1.7549,0.0842,0.6097,0.1292
2853608,8.3222,3.7134,-1.4389,0.1077,0.8599,0.2326
2853632,9.0884,3.5626,-0.8428,0.1175,1.0259,0.3592
2853656,10.1131,3.1915,-0.1844,0.101,0.9569,0.4551
2853680,10.2185,2.873,-0.0575,0.0874,0.6456,0.3605
2853704,9.6558,2.8515,-0.4501,0.0602,0.4466,0.247
2853728,9.0118,2.8323,-0.7446,0.0123,0.4724,0.1884
2853752,8.588,2.8491,-0.6967,-0.032,0.6075,0.1514
2853776,8.6814,2.9784,-0.2155,-0.0975,0.7687,0.1876
2853800,8.8801,3.3567,0.237,-0.1356,0.8444,0.324
2853824,8.8992,3.4644,0.3687,-0.0525,0.9228,0.5521
2853848,8.9615,3.0598,0.5195,0.0911,1.0158,0.5987
2853872,9.0094,2.569,0.6393,0.1583,1.1586,0.5561
2853896,9.0621,2.5043,0.9888,0.2012,1.3744,0.5348
2853920,9.73,2.3583,1.5993,0.2497,1.5449,0.5265
2853944,10.2687,1.8938,2.2601,0.243,1.4536,0.4415
2853968,10.0796,1.9752,2.4349,0.1865,1.2065,0.4122
2853992,9.6414,1.9417,2.3679,0.1495,1.1074,0.4421
2854016,9.414,1.6735,2.4469,0.1258,1.1751,0.372
2854040,9.2751,1.7023,2.6624,0.0853,1.2156,0.2904
2854064,8.8131,2.2458,2.9161,0.0957,1.2185,0.3957
2854088,9.2823,1.98,3.4979,0.1823,1.2761,0.4415
2854112,9.3494,1.4892,3.7804,0.2121,1.218,0.3022
2854136,9.0237,1.3479,3.7421,0.1292,1.121,0.3008
2854160,8.7987,1.4126,3.6703,0.0381,1.0909,0.4911
2854184,8.8155,1.0965,3.8475,-0.0432,1.1602,0.578
2854208,9.5529,0.8835,4.5993,-0.0687,1.1634,0.4202
2854232,9.3302,1.245,4.9392,-0.0059,0.9401,0.2595
2854256,8.5497,1.3408,4.8554,-0.024,0.8218,0.2465
2854280,7.7907,1.4485,4.3311,-0.0005,0.9425,0.3475
2854304,7.9942,1.6807,5.0254,0.0568,1.1418,0.5132
2854328,8.5329,1.0511,5.3463,0.1124,1.2175,0.3885
2854352,9.2249,0.6033,5.9544,0.089,1.1325,0.1244
2854376,8.5521,0.9888,5.6503,0.0298,0.9537,0.1396
2854400,7.2832,1.2426,5.1619,0.149,1.1365,0.3254
2854424,7.6112,0.6512,6.1052,0.1767,1.3177,0.3403
2854448,9.153,1.1301,7.1587,0.0453,1.2441,0.3693
2854472,8.8178,0.6776,6.9647,0.0544,0.8564,0.2854
2854496,7.0533,0.6632,6.2632,0.0733,0.8186,0.1396
2854520,6.79,0.8475,6.4021,0.089,1.0086,0.1476
2854544,6.7325,0.9601,7.1012,0.0437,1.0477,0.2718
2854568,8.0062,1.2067,7.6998,0.0051,0.9779,0.255
2854592,6.9839,0.6153,7.0988,0.0381,0.7717,0.0938
2854616,6.0693,0.8188,6.7014,0.0141,0.9145,0.0882
2854640,6.6607,1.1851,7.7213,-0.0168,1.0184,0.2499
2854664,6.6128,1.0127,7.9128,-0.0749,0.7815,0.2769
2854688,6.3758,0.8092,7.7812,-0.1482,0.8396,0.1284
2854712,6.7205,0.9529,8.4108,-0.0498,0.8942,-0.1322
2854736,6.5194,0.9098,8.5473,0.0711,0.756,-0.3882
2854760,6.1459,0.8308,8.4108,0.1172,0.6558,-0.3722
2854784,5.2337,0.7183,8.0373,0.0807,0.7261,-0.2686
2854808,5.8179,0.4046,8.3414,0.0104,0.6997,-0.1982
2854832,5.5091,0.5794,8.2456,-0.049,0.4975,-0.1463
2854856,4.9464,0.8404,8.1068,-0.0807,0.3413,-0.0445
2854880,3.7445,0.9194,7.9104,-0.1687,0.3677,0.0629
2854904,4.4556,1.4916,8.6933,-0.235,0.5513,0.3469
2854928,5.7006,1.2953,9.3589,-0.1951,0.3597,0.5364
2854952,5.8155,1.1396,9.3637,-0.0957,0.1255,0.4623
2854976,5.4348,0.8739,9.0118,0.0466,-0.0562,0.1889
2855000,4.9536,0.917,8.8562,0.0794,0.0168,-0.0666
2855024,5.5498,1.0534,9.2177,0.0155,0.0338,-0.0775
2855048,5.8802,1.1205,9.3446,-0.0589,-0.1876,-0.0293
2855072,5.6527,1.3001,8.9519,-0.0725,-0.3976,-0.0248
2855096,5.2696,0.929,8.4707,-0.0256,-0.4072,-0.1468
2855120,5.3175,0.6919,8.2839,-0.0053,-0.3829,-0.3627
2855144,5.2313,0.7757,8.2049,-0.0685,-0.3786,-0.4298
2855168,4.7022,1.2737,8.0158,-0.1319,-0.3174,-0.3291
2855192,4.774,1.6161,8.0062,-0.0861,-0.2598,-0.238
2855216,4.9512,1.4676,8.0756,-0.0325,-0.2761,-0.1783
2855240,4.6543,1.1636,7.8889,-0.0442,-0.2268,-0.1788
2855264,5.1547,1.3408,8.0972,-0.0674,-0.149,-0.186
2855288,5.8155,1.2258,8.5138,-0.0778,-0.2433,-0.1015
2855312,5.6144,1.312,8.3007,-0.0914,-0.3603,-0.0906
2855336,5.3678,1.4653,8.2265,-0.044,-0.3533,-0.1607
2855360,5.4013,1.5107,8.102,0.0056,-0.3464,-0.1601
2855384,5.2122,1.4293,7.8434,-0.0043,-0.2662,-0.093
2855408,5.5617,1.3479,7.9176,-0.0179,-0.1761,0.0187
2855432,5.5282,1.233,7.7835,-0.0245,-0.1524,0.0357
2855456,5.7413,1.2186,7.8985,-0.029,-0.1487,0.0293
2855480,5.5617,1.5778,7.7357,-0.0448,-0.1561,0.0823
2855504,5.1787,1.6257,7.5178,-0.0093,-0.0325,0.0965
2855528,5.5258,1.6664,7.5417,0.0408,0.0842,0.0949
2855552,5.7652,1.4389,7.58,0.0477,0.126,0.142
2855576,6.0214,1.3527,7.7405,-0.0027,0.1085,0.2459
2855600,5.6743,1.166,7.6112,-0.0528,0.1162,0.3094
2855624,5.7892,1.2498,7.8075,-0.081,0.2089,0.2955
2855648,6.0573,1.3791,7.9799,-0.0829,0.2571,0.2385
2855672,6.4452,1.5802,8.2313,-0.0458,0.2078,0.2228
2855696,6.1124,1.1995,7.8554,-0.0234,0.1319,0.2326
2855720,5.6671,0.9026,7.7069,-0.0845,0.219,0.1276
2855744,7.1898,1.5634,8.6503,-0.0818,0.2057,0.0554
2855768,7.0006,1.3862,8.2241,-0.048,-0.1258,0.1415
2855792,6.11,1.087,7.8602,-0.0216,0.0584,0.0525
2855816,6.2034,1.1157,8.0637,0.0179,0.1735,0.0237
2855840,5.8802,1.2809,7.9966,0.0562,0.3059,0.1055
2855864,5.7557,1.0247,8.0661,0.1146,0.3632,0.1066
2855888,5.5929,1.166,7.9009,0.1058,0.3549,0.1543
2855912,5.0685,1.075,7.4651,0.093,0.3283,0.2372
2855936,5.8012,1.5083,7.8961,0.0477,0.4066,0.3163
2855960,6.0334,1.4916,8.2408,0.0554,0.3336,0.3677
2855984,5.9041,1.2737,8.3175,0.0693,0.3813,0.2537
2856008,6.0789,1.0678,8.1379,0.1306,0.3952,0.0941
2856032,5.8395,1.1205,8.0038,0.0815,0.3805,0.0048
2856056,5.7604,1.2378,8.2337,0.0152,0.2886,0.0546
2856080,5.7868,1.2258,8.4108,-0.0173,0.1111,0.0871
2856104,5.4827,1.0606,8.2504,-0.0496,-0.0349,0.061
2856128,4.9895,1.2522,7.9607,-0.0831,-0.0855,0.0213
2856152,4.7669,1.6975,7.9655,-0.0749,0.0011,-0.0021
2856176,4.7716,1.5802,8.023,-0.0536,0.0648,0.0165
2856200,4.9991,1.5083,8.1977,-0.0485,0.1106,0.0197
2856224,5.0613,1.2474,8.1977,-0.0549,0.0959,0.0083
2856248,5.1212,1.2881,8.3246,-0.0895,0.0949,0.0011
2856272,5.1811,1.3048,8.3749,-0.105,0.0701,0.0029
2856296,5.0494,1.3288,8.3606,-0.1178,0.0648,-0.0088
2856320,5.5354,1.5514,8.6335,-0.0869,0.0432,-0.0024
2856344,5.442,1.1372,8.4587,-0.0762,-0.0314,-0.0056
2856368,5.3989,1.2881,8.3653,-0.0997,-0.028,-0.0115
2856392,5.3056,1.3934,8.3031,-0.0815,0.0029,0.0064
2856416,5.4492,1.391,8.3414,-0.0576,0.0136,0.0091
2856440,5.2505,1.2019,8.2217,-0.0634,0.0309,-0.0109
2856464,5.3774,1.3791,8.3462,-0.0711,0.0522,0.0107
2856488,5.3582,1.2522,8.2959,-0.0687,0.0626,0.0008
2856512,5.2768,1.4461,8.3031,-0.0703,0.0634,-0.0123
2856536,5.1739,1.4293,8.2672,-0.0437,0.077,-0.0285
2856560,5.3295,1.245,8.3007,-0.0552,0.0805,-0.0277
2856584,5.2218,1.3024,8.339,-0.0839,0.0506,-0.0059
2856608,5.1188,1.3288,8.3366,-0.0813,0.0368,-0.0125
2856632,5.1787,1.4078,8.4587,-0.0879,0.0197,-0.0141
2856656,5.0206,1.3384,8.3701,-0.0925,-0.0067,-0.0021
2856680,5.0877,1.4198,8.3438,-0.0882,0.0107,-0.0179
2856704,5.2648,1.4533,8.3222,-0.0917,-0.0048,-0.0187
2856728,5.3486,1.3934,8.3845,-0.0685,-0.041,-0.0408
2856752,5.2481,1.2857,8.3246,-0.0738,-0.0392,-0.0608
2856776,5.2505,1.3312,8.339,-0.0799,-0.0416,-0.0504
2856800,5.3702,1.3719,8.3773,-0.0754,-0.0477,-0.0429
2856824,5.3175,1.3647,8.2648,-0.0855,-0.0698,-0.0221
2856848,5.3127,1.3886,8.2217,-0.0986,-0.073,-0.0157
2856872,5.3846,1.3575,8.1954,-0.11,-0.0733,-0.0346
2856896,5.3989,1.5083,8.2265,-0.11,-0.0605,-0.0298
2856920,5.3702,1.403,8.2576,-0.1015,-0.048,-0.0402
2856944,5.4348,1.3048,8.2768,-0.0989,-0.0426,-0.0501
2856968,5.3151,1.4485,8.2959,-0.1037,-0.0072,-0.0322
2856992,5.4684,1.4222,8.3222,-0.0794,0.0144,-0.0085
2857016,5.4971,1.245,8.2121,-0.0839,0.0155,-0.0125
2857040,5.5593,1.221,8.1954,-0.1162,-0.0155,-0.0037
2857064,5.4564,1.3024,8.1618,-0.1687,-0.0562,0.0221
2857088,5.4564,1.4964,8.3294,-0.1617,-0.0424,0.0328
2857112,5.6096,1.2258,8.2576,-0.1593,-0.0653,0.0173
2857136,5.5641,1.3647,8.1451,-0.1871,-0.0751,0.0088
2857160,5.5354,1.5419,8.3246,-0.1532,-0.0701,-0.0109
2857184,5.6336,1.3982,8.2672,-0.0949,-0.0642,-0.0565
2857208,5.4827,1.1803,8.0709,-0.0762,-0.0517,-0.1471
2857232,5.5306,1.415,8.1738,-0.0853,-0.0338,-0.1841
2857256,5.4372,1.2378,8.169,-0.1053,-0.0434,-0.1047
2857280,5.2912,1.1779,8.0086,-0.1199,0.0245,-0.093
2857304,5.521,1.3886,8.1092,-0.1132,0.0671,-0.1196
2857328,5.2457,1.3623,8.0637,-0.1007,0.0269,-0.0997
2857352,5.2936,1.4126,7.9918,-0.1298,0.1172,-0.0568
2857376,5.8083,1.4772,8.0709,-0.137,0.126,-0.0426
2857400,5.5881,1.4796,8.0493,-0.1391,0.1013,-0.1612
2857424,5.6383,1.4868,8.2073,-0.1186,0.0935,-0.2145
2857448,5.4157,1.3144,8.0732,-0.1316,0.1023,-0.2678
2857472,5.5186,1.4102,8.09,-0.1572,0.126,-0.3704
2857496,5.7413,1.7262,8.0661,-0.21,0.0738,-0.3107
2857520,5.5857,1.798,8.0589,-0.2126,0.0274,-0.2995
2857544,5.5474,1.4054,8.0732,-0.2062,0.0669,-0.2489
2857568,6.0525,0.996,8.4132,-0.2004,0.0826,-0.2537
2857592,5.9951,0.8068,8.4874,-0.2236,-0.0232,-0.344
2857616,5.454,1.2665,8.1211,-0.218,-0.0954,-0.3826
2857640,5.2313,1.5299,7.7357,-0.2366,-0.089,-0.3288
2857664,4.9656,1.9201,7.841,-0.2755,-0.0434,-0.215
2857688,5.296,1.5419,8.1738,-0.239,0.0418,-0.0661
2857712,5.952,0.8068,8.1762,-0.1887,0.016,-0.1234
2857736,5.8371,0.6536,8.0996,-0.2726,-0.0855,-0.2649
2857760,5.3175,1.889,8.1834,-0.4738,-0.1175,-0.2174
2857784,5.4636,2.6935,8.8274,-0.389,-0.0354,-0.0136
2857808,6.371,1.549,8.1738,-0.1343,-0.1639,0.0085
2857832,5.6958,0.0718,6.9647,-0.1314,-0.2835,-0.2601
2857856,5.102,1.3575,7.4196,-0.3571,-0.328,-0.4559
2857880,4.47,2.2003,7.9942,-0.4104,-0.2348,-0.2046
2857904,5.0278,1.3264,8.339,-0.437,0.0552,-0.0506
2857928,6.1076,0.6416,9.0908,-0.5276,0.1087,-0.1719
2857952,6.7756,1.2546,8.9591,-0.5585,0.1252,-0.3616
2857976,6.8881,1.3623,8.6694,-0.4309,-0.2998,-0.7943
2858000,4.9177,1.4293,7.7644,-0.2334,-0.5356,-1.2263
2858024,3.9241,1.3934,7.5489,-0.0751,-0.4122,-1.2047
2858048,3.699,1.2546,7.5058,-0.1362,-0.1588,-0.7751
2858072,4.4149,1.5634,7.6184,-0.3174,0.065,-0.0677
2858096,5.442,2.2721,8.1523,-0.462,0.1759,0.3944
2858120,5.9711,1.5754,8.6263,-0.4109,0.158,0.5057
2858144,5.9879,0.3639,8.6862,-0.3488,0.1082,0.1199
2858168,5.7533,0.6201,8.6143,-0.3038,0.0368,-0.4106
2858192,5.2816,1.5275,8.2097,-0.1951,0.1082,-0.6035
2858216,6.4715,1.0511,8.2624,-0.2587,0.0786,-0.3621
2858240,5.9472,1.1253,7.8266,-0.3813,-0.1311,-0.1953
2858264,5.1212,1.8411,7.5824,-0.3856,-0.0693,-0.1958
2858288,5.5929,1.901,8.1738,-0.271,0.1005,0.0173
2858312,6.5457,0.7829,8.4803,-0.2737,0.1148,0.1988
2858336,7.2018,0.6728,8.7676,-0.3022,-0.0613,0.2324
2858360,6.6918,0.8404,8.248,-0.1903,-0.284,0.0341
2858384,5.8083,0.8332,7.7405,-0.1351,-0.3312,-0.1396
2858408,5.9376,1.5179,8.0206,-0.1372,-0.2257,-0.0866
2858432,6.1507,1.324,8.023,-0.125,-0.2297,0.0378
2858456,6.1124,1.5562,7.8027,-0.0911,-0.1732,0.0059
2858480,6.2321,1.2713,7.7764,-0.0272,-0.1671,-0.1164
2858504,5.9089,1.2306,7.6806,-0.0016,-0.138,-0.303
2858528,5.8682,1.1037,8.0661,0.0274,-0.0965,-0.3651
2858552,5.5665,0.9361,8.6095,-0.0594,-0.0029,-0.3168
2858576,5.9089,1.2881,8.8466,-0.0717,0.0759,-0.3144
2858600,6.1316,1.0008,8.3079,-0.0573,0.0637,-0.2984
2858624,5.9831,0.6369,7.6303,-0.0163,-0.0506,-0.4391
2858648,5.217,1.5921,7.1587,0.0514,-0.1327,-0.5108
2858672,4.1156,1.9225,7.1108,0.1375,-0.056,-0.3365
2858696,4.3574,1.3958,7.5106,0.0021,0.1732,0.2739
2858720,4.7238,1.4102,7.9128,-0.1167,0.2467,0.6408
2858744,4.8842,1.5371,8.0302,-0.0797,0.2678,0.5268
2858768,5.2074,1.5036,8.0349,-0.0226,0.251,0.2753
2858792,5.272,1.9369,8.0158,0.0093,0.2811,0.1151
2858816,5.849,1.5107,8.1834,0.0205,0.3048,-0.0211
2858840,6.0956,1.4365,8.327,0.0115,0.2465,-0.1676
2858864,5.9664,1.5275,8.2456,0.0341,0.1639,-0.2529
2858888,5.6264,1.2953,7.9823,0.0131,0.1087,-0.194
2858912,5.7293,1.0558,7.8578,-0.0946,0.141,-0.0935
2858936,5.5809,1.6496,7.8482,-0.1444,0.154,-0.0282
2858960,5.4755,1.9609,7.9416,-0.0314,0.223,0.0075
2858984,6.031,1.3312,8.1163,-0.0109,0.2489,0.0594
2859008,6.347,1.0463,8.2696,-0.0402,0.1548,0.1212
2859032,6.0382,1.2953,8.0254,-0.0941,0.077,0.1777
2859056,5.8562,1.652,7.841,-0.1116,0.0517,0.1649
2859080,5.9759,1.6855,7.853,-0.1479,0.0613,0.1244
2859104,5.9065,1.6185,8.0302,-0.1687,0.0416,0.0365
2859128,5.4396,1.8292,8.4707,-0.1311,0.041,-0.0839
2859152,5.2289,2.0231,8.5329,-0.0458,0.1263,-0.113
2859176,5.7365,1.0151,8.4132,0.0021,0.1783,-0.0352
2859200,6.4643,0.6967,8.2408,-0.0826,0.1002,-0.0909
2859224,6.4979,1.1396,8.1259,-0.1452,-0.0941,-0.2593
2859248,6.0525,1.7166,8.0924,-0.1575,-0.2105,-0.336
2859272,5.7102,1.7573,8.0517,-0.0829,-0.2411,-0.3587
2859296,5.4205,1.3431,7.8913,-0.0461,-0.2268,-0.3592
2859320,5.4372,1.506,8.0565,-0.1007,-0.2094,-0.2289
2859344,5.4324,1.5897,8.1379,-0.1551,-0.2531,-0.0394
2859368,5.4444,1.4676,7.8841,-0.1748,-0.311,0.0059
2859392,5.2625,1.8052,7.7835,-0.2145,-0.3166,-0.0594
2859416,5.284,1.9632,7.944,-0.2025,-0.3115,-0.0973
2859440,5.2241,1.5754,7.9296,-0.194,-0.3048,-0.1572
2859464,4.9728,1.6305,7.6471,-0.2689,-0.1636,-0.1503
2859488,5.4708,2.1141,7.8027,-0.2912,-0.0333,-0.1812
2859512,5.7365,1.9561,7.4843,-0.2446,-0.053,-0.2902
2859536,5.7604,2.4301,7.6662,-0.2878,-0.0554,-0.3507
2859560,5.703,2.8994,7.865,-0.2425,-0.0746,-0.1484
2859584,5.5282,1.9848,7.4915,-0.0767,-0.0338,-0.1228
2859608,6.1483,0.759,7.6854,-0.0933,0.0336,0.0085
2859632,6.869,1.4317,8.0924,-0.3251,-0.0994,0.319
2859656,6.3087,1.6592,7.853,-0.3126,-0.3776,0.497
2859680,5.1092,0.5291,7.027,-0.2134,-0.2952,0.3296
2859704,5.2337,0.8859,7.039,-0.1972,0.0187,-0.0125
2859728,6.3734,1.4796,7.5633,-0.2102,0.0195,-0.0325
2859752,6.2177,1.1492,7.6854,-0.3645,-0.1098,0.2188
2859776,6.11,1.1037,7.8602,-0.3837,-0.0893,0.4247
2859800,6.031,0.7853,7.6662,-0.3043,0.0666,0.3389
2859824,6.9552,1.2282,7.9392,-0.2321,0.1644,0.1684
2859848,7.1635,0.8164,7.8147,-0.1428,0.032,0.1335
2859872,6.7564,0.3232,7.5274,-0.2153,-0.032,0.109
2859896,6.5481,0.9098,7.4244,-0.222,-0.0093,0.0003
2859920,6.5529,1.1851,7.3789,-0.125,0.0346,-0.0802
2859944,6.9168,1.2402,7.5776,0.0474,-0.0512,0.0171
2859968,6.7852,0.3639,7.6878,0.0898,-0.0304,0.02
2859992,6.4189,0.1053,7.5226,-0.1609,-0.0637,-0.1748
2860016,6.9025,1.3024,7.3981,-0.3158,0.0027,-0.2012
2860040,6.7421,1.3934,7.3023,-0.259,-0.0941,-0.0338
2860064,6.6942,0.5602,7.2305,-0.2265,-0.0554,-0.0813
2860088,6.7852,0.4142,7.5202,-0.2801,-0.0986,-0.1636
2860112,6.438,0.7973,7.6854,-0.3102,-0.1519,-0.1039
2860136,6.1244,0.8212,8.0756,-0.328,-0.1676,0.0685
2860160,5.794,1.1732,7.4388,-0.348,-0.1274,0.0456
2860184,5.9424,1.2522,7.1275,-0.3339,-0.0296,-0.1727
2860208,6.2177,0.7398,7.4915,-0.3429,0.0085,-0.3936
2860232,6.4117,0.0072,7.9751,-0.3624,-0.0149,-0.3712
2860256,6.3518,0.2107,7.8195,-0.4069,0.0304,-0.2276
2860280,6.3949,0.5722,7.5561,-0.4799,0.0661,0.0589
2860304,6.8307,1.3527,7.2496,-0.4594,0.0602,0.2081
2860328,6.7684,0.8835,6.9456,-0.3355,-0.0717,0.1575
2860352,6.1746,0.1317,6.9312,-0.3139,-0.1021,0.0205
2860376,6.0932,0.1245,7.2089,-0.3683,-0.0472,-0.0032
2860400,6.0071,0.2466,7.4005,-0.4149,-0.0232,0.0514
2860424,6.1627,0.1221,7.8075,-0.4247,0.0187,-0.0091
2860448,6.3829,0.0239,8.26,-0.3826,-0.016,-0.0536
2860472,6.11,0.0479,8.0206,-0.3539,-0.069,0.0253
2860496,5.9424,0.2107,7.4962,-0.3645,-0.0152,0.1588
2860520,6.0645,-0.1508,7.3502,-0.3429,0.0922,0.2297
2860544,6.6846,0.0192,7.6734,-0.2992,0.1215,0.1708
2860568,6.6463,-0.577,7.8769,-0.2641,0.0717,0.0104
2860592,6.4476,-0.2969,8.0086,-0.2827,0.0861,-0.0906
2860616,6.3805,-0.1006,7.9871,-0.2449,0.0938,-0.2006
2860640,6.3877,-0.0838,7.9057,-0.2225,0.1063,-0.3086
2860664,6.2991,0.1484,7.908,-0.1871,0.093,-0.3579
2860688,6.7588,0.8188,8.1355,-0.1681,0.1338,-0.3301
2860712,7.1395,2.3224,8.4539,-0.1844,-0.0093,0.2678
2860736,6.2824,1.4078,7.9176,0.0077,-0.1663,0.5449
2860760,6.1938,0.2873,7.8123,0.1522,-0.1029,0.4932
2860784,6.3375,-0.0503,7.8075,0.0994,-0.1266,0.3829
2860808,6.1244,-0.6943,7.6734,0.1527,-0.1138,0.1135
2860832,6.201,-0.5171,7.6854,0.1418,-0.052,-0.2577
2860856,6.256,-0.2274,7.8626,0.1039,-0.0306,-0.3248
2860880,6.2968,0.2945,8.078,0.0839,-0.0488,-0.1937
2860904,6.0597,0.2322,7.9918,0.0983,-0.1244,-0.1164
2860928,5.7868,0.0215,7.75,0.1324,-0.1444,-0.1375
2860952,5.2648,-0.7326,7.2808,0.178,-0.0533,-0.223
2860976,5.1619,-2.1261,6.9935,0.1439,0.1282,-0.4253
2861000,5.9903,-0.984,7.2856,-0.0821,0.2545,-0.3768
2861024,6.2704,1.3048,7.6974,-0.2084,0.2073,0.158
2861048,6.0094,2.0446,7.9128,-0.0429,0.1314,0.623
2861072,5.6168,0.984,7.525,0.1977,0.1545,0.744
2861096,5.7054,-0.1724,7.2951,0.2236,0.2798,0.7429
2861120,6.1148,-0.5243,7.4651,0.1775,0.3072,0.6414
2861144,6.2417,-0.2346,7.4819,0.0685,0.2974,0.5297
2861168,6.6966,1.5682,7.9511,-0.0442,0.2766,0.6662
2861192,6.3494,1.6113,7.9679,0.0461,0.234,0.8687
2861216,6.3327,1.3024,8.4228,0.1498,0.2585,0.8226
2861240,6.6583,0.68,8.4827,0.2758,0.1697,0.7488
2861264,6.2034,-0.249,8.0206,0.2955,0.1356,0.6539
2861288,5.9903,-0.6895,7.7668,0.2779,0.1948,0.3275
2861312,5.9568,-0.2921,7.7476,0.2665,0.2158,0.0805
2861336,6.0765,0.1484,7.7237,0.2393,0.2675,0.0754
2861360,6.0932,0.2442,7.865,0.2158,0.2012,0.1415
2861384,5.861,-0.0503,7.853,0.2364,0.1998,0.1359
2861408,5.6168,-0.7254,7.8626,0.2246,0.2547,0.0187
2861432,5.8442,-0.6728,7.8889,0.2022,0.2742,-0.0258
2861456,5.703,-0.8475,7.8243,0.1295,0.3003,0.0706
2861480,5.8107,-0.6536,7.8338,0.0218,0.3355,0.2222
2861504,6.0094,-0.7374,8.3606,-0.0184,0.2686,0.2936
2861528,5.5091,-0.6249,7.8985,-0.0056,0.1804,0.2427
2861552,5.1404,-1.3719,7.6279,-0.1082,0.3216,0.2486
2861576,6.1052,-0.7494,8.43,-0.1924,0.4064,0.2515
2861600,6.1651,-0.5076,8.3701,-0.134,0.2705,0.0717
2861624,6.6535,-0.0958,8.4707,-0.0746,0.1639,0.085
2861648,5.8562,-0.395,8.0589,-0.0512,0.0035,0.1063
2861672,5.1787,-0.4286,7.8171,-0.0632,0.1364,0.0898
2861696,5.7533,-0.6297,8.0421,-0.0418,0.1567,0.0834
2861720,5.43,-0.8763,7.7237,-0.0698,0.1804,0.0901
2861744,5.9664,-0.6488,8.0732,-0.1287,0.259,0.1689
2861768,6.0765,-0.1413,8.1379,-0.1631,0.1711,0.2686
2861792,5.9304,-0.1149,8.193,-0.1412,0.0973,0.3056
2861816,5.4229,-0.9146,7.9775,-0.0973,0.0632,0.3006
2861840,5.2505,-1.3503,7.908,-0.1543,0.1178,0.2073
2861864,5.1068,-1.2785,8.1475,-0.2278,0.2289,0.2076
2861888,5.1092,-1.0151,8.2983,-0.2731,0.3285,0.2361
2861912,5.6479,-0.6512,8.7005,-0.1729,0.3102,0.2254
2861936,5.2816,-1.2234,8.3582,-0.0946,0.1863,0.0749
2861960,4.64,-1.6616,8.0278,-0.1841,0.2713,0.0885
2861984,4.6902,-1.1396,8.0062,-0.328,0.5137,0.1692
2862008,5.3486,-0.8978,8.5018,-0.2382,0.4503,0.1735
2862032,4.8626,-1.1085,8.43,-0.219,0.3259,0.0349
2862056,4.7764,-0.7853,8.2911,-0.1732,0.3304,0.061
2862080,4.81,-0.8499,8.588,-0.0546,0.3469,0.2238
2862104,4.6902,-1.4317,9.0764,-0.1532,0.2737,0.3885
2862128,4.5346,-1.0439,9.0166,-0.1719,0.1716,0.3986
2862152,4.0701,-1.3455,8.5904,-0.1511,0.19,0.3613
2862176,4.1396,-1.0774,8.4994,-0.1042,0.2992,0.2691
2862200,4.0151,-0.9864,8.8322,-0.0581,0.3035,0.3283
2862224,4.3742,-0.8811,9.4619,-0.0602,0.2435,0.3848
2862248,4.6448,-1.3144,9.2129,-0.0272,0.0983,0.2502
2862272,4.8052,-1.4605,8.7867,-0.029,0.1937,0.1791
2862296,4.8746,-1.4988,8.9735,-0.1207,0.2745,0.166
2862320,4.7405,-1.0511,9.0668,-0.1876,0.2681,0.1569
2862344,4.8435,-0.6249,9.4475,-0.1452,0.1785,0.1444
2862368,4.1276,-1.0798,8.9471,-0.0861,0.077,0.0149
2862392,4.0223,-0.984,8.8825,-0.0911,0.1673,-0.1596
2862416,4.0079,-1.0654,9.0477,-0.0933,0.1935,-0.2044
2862440,4.5203,-1.2929,9.1435,-0.1324,0.1911,-0.2174
2862464,4.889,-1.0798,8.9567,-0.1343,0.1047,-0.1391
2862488,4.3742,-1.6017,8.8633,-0.162,0.0666,-0.0994
2862512,4.051,-1.494,8.746,-0.223,0.2028,-0.0528
2862536,4.7381,-1.1109,9.2416,-0.2017,0.1951,-0.057
2862560,4.6208,-1.2546,9.1004,-0.1639,-0.0061,0.0109
2862584,3.9935,-1.0822,8.7915,-0.1372,-0.0328,-0.0282
2862608,3.9073,-1.1133,8.9112,-0.0845,0.0032,-0.0789
2862632,4.3431,-1.3551,9.2201,-0.0421,0.0309,-0.0973
2862656,4.6208,-1.3048,9.3398,-0.0658,0.0181,-0.0981
2862680,4.5514,-1.2091,9.6295,-0.0791,-0.0533,-0.0815
2862704,4.221,-1.2737,9.3182,-0.0666,-0.0757,-0.1812
2862728,4.379,-1.1779,9.0884,-0.0445,-0.0901,-0.2673
2862752,4.6878,-1.1468,9.2033,-0.056,-0.0826,-0.2297
2862776,4.7381,-0.8667,9.3039,-0.0973,-0.1529,-0.1532
2862800,4.2665,-0.6608,8.916,-0.0935,-0.3373,-0.2683
2862824,3.304,-1.2594,8.7556,0.1186,-0.2228,-0.3909
2862848,4.0055,-1.9201,8.8059,-0.0392,-0.1388,-0.3752
2862872,3.881,-0.9313,8.4707,-0.0925,-0.04,-0.2785
2862896,3.893,-1.2163,8.4252,-0.141,0.0045,-0.2345
2862920,4.0558,-0.8547,8.588,-0.203,0.1047,-0.1039
2862944,4.1659,-0.8068,8.8538,-0.1628,0.0943,-0.1332
2862968,4.4221,-0.5914,9.0884,-0.1178,0.008,-0.1804
2862992,4.0462,-0.6656,8.8897,-0.0384,-0.0242,-0.1604
2863016,3.8068,-0.905,8.6694,-0.0155,0.0496,-0.1729
2863040,4.2521,-0.9984,8.9184,-0.0504,0.0735,-0.1652
2863064,4.288,-0.9098,9.0214,-0.0807,0.0765,-0.0906
2863088,4.391,-0.893,8.8921,-0.0541,0.0693,-0.0717
2863112,4.3862,-0.9002,8.7819,-0.0453,0.1055,-0.0965
2863136,4.616,-0.8859,9.0237,-0.0568,0.0781,-0.0746
2863160,4.5274,-1.0822,8.9423,-0.0759,0.0083,-0.0735
2863184,4.3814,-1.1013,8.7915,-0.1106,0.0205,-0.0842
2863208,4.7022,-0.9649,9.0046,-0.1255,0.0437,-0.1061
2863232,4.7357,-0.6369,9.3709,-0.1511,-0.0051,-0.0568
2863256,4.4388,-0.419,9.4691,-0.1223,-0.0253,0.0131
2863280,4.3862,-0.6608,9.3446,-0.0376,-0.069,-0.0751
2863304,4.2234,-0.8906,8.9615,-0.0101,-0.056,-0.1665
2863328,4.0677,-0.9577,8.7891,-0.0061,-0.008,-0.2009
2863352,4.3048,-0.3831,8.8897,-0.0346,0.0032,-0.215
2863376,4.2737,-0.5267,8.7843,0.0173,-0.0666,-0.227
2863400,4.525,-0.7973,8.7053,0.004,-0.0632,-0.1697
2863424,4.7501,-0.929,8.8729,-0.0237,-0.0405,-0.1191
2863448,4.7573,-0.6608,9.0046,-0.0237,-0.1061,-0.162
2863472,4.1707,-0.4549,8.8705,-0.0245,-0.1204,-0.1439
2863496,4.0199,-0.3256,8.9088,-0.0016,-0.0634,-0.0701
2863520,4.0558,-0.6249,8.8298,0.0306,-0.0493,-0.053
2863544,4.4101,-0.7302,8.9184,0.0229,-0.0666,-0.0456
2863568,4.3335,-0.4932,8.7652,0.0016,-0.1042,0.0237
2863592,4.1899,-0.4788,8.7317,0.025,-0.073,0.0714
2863616,4.3383,-0.5483,8.8921,0.0645,-0.0557,0.0802
2863640,4.3886,-0.5626,8.9423,0.065,-0.053,0.1727
2863664,4.1396,-0.5052,9.0621,0.0663,-0.0043,0.2068
2863688,4.1492,-0.2251,9.7348,0.0975,0.0229,0.2105
2863712,4.0582,-0.1556,9.9,0.1553,0.0293,0.2936
2863736,4.3144,-0.091,9.517,0.1958,0.0557,0.2976
2863760,4.628,0.182,8.8921,0.2795,-0.0312,0.1836
2863784,4.1492,-0.3328,8.181,0.3083,-0.0637,0.1095
2863808,4.1515,-0.7997,8.2624,0.2196,0.0152,0.0773
2863832,4.6519,-0.3998,8.4156,0.1697,0.0349,0.1604
2863856,5.1404,0.0503,8.193,0.1916,-0.0472,0.2603
2863880,5.3056,0.0958,8.0469,0.1956,-0.1183,0.3565
2863904,5.1954,-0.0192,8.0421,0.1751,-0.1138,0.3818
2863928,5.4971,-0.1963,8.0732,0.1673,-0.1116,0.2995
2863952,5.102,-0.6416,8.1618,0.1154,-0.1354,0.1628
2863976,4.5801,-0.9385,8.1451,-0.044,0.0008,0.0677
2864000,4.7118,-0.4884,8.1762,-0.2289,0.1927,0.0461
2864024,5.3079,0.5674,8.3534,-0.2843,0.2771,-0.0165
2864048,5.9089,1.2953,8.8777,-0.1452,0.1207,-0.0051
2864072,5.0973,0.3591,8.5114,-0.0085,-0.0498,-0.1314
2864096,4.9752,-0.5028,8.0828,-0.0216,0.0288,-0.2723
2864120,5.1499,-0.6608,8.1331,-0.1628,0.1247,-0.3912
2864144,5.4229,0.2873,8.26,-0.2332,0.0981,-0.3877
2864168,5.2098,0.51,8.1594,-0.1695,-0.0104,-0.3421
2864192,5.0111,-0.316,7.8793,-0.1556,-0.0613,-0.2611
2864216,4.9704,-0.7949,7.8243,-0.2366,-0.036,-0.2507
2864240,5.0494,-0.6776,8.0709,-0.3491,-0.0069,-0.2731
2864264,5.3917,0.1532,8.509,-0.4026,-0.0714,-0.1788
2864288,5.1332,0.4166,8.4036,-0.3285,-0.1247,-0.0826
2864312,5.0542,-0.3783,8.5138,-0.1743,-0.1082,-0.0632
2864336,4.889,-1.4772,8.7939,-0.2547,-0.0613,-0.0506
2864360,4.944,-1.3479,9.2727,-0.4549,0.0256,-0.0152
2864384,4.9536,-0.3879,9.9623,-0.5918,0.0847,-0.0037
2864408,5.1691,0.6632,9.8545,-0.5049,0.0893,-0.1074
2864432,5.4013,0.6153,8.8705,-0.3222,0.0274,-0.3235
2864456,5.2361,0.0766,8.011,-0.2377,-0.064,-0.6382
2864480,4.8219,0.1939,7.999,-0.2673,-0.133,-0.7717
2864504,4.391,0.0431,8.2456,-0.214,-0.1953,-0.7496
2864528,4.0917,-0.4573,8.339,-0.1716,-0.1343,-0.7866
2864552,4.5657,-0.5219,8.7652,-0.1271,-0.0949,-0.6278
2864576,4.3862,-0.7542,8.6886,-0.1332,-0.1673,-0.4471
2864600,4.1875,-0.6249,8.2384,-0.234,-0.1074,-0.2577
2864624,4.6304,-0.1245,8.5114,-0.292,-0.0357,-0.0365
2864648,5.2289,0.1341,8.7795,-0.2265,-0.0565,0.15
2864672,5.1691,-0.7925,8.8107,-0.1785,-0.1108,0.1047
2864696,5.0829,-0.2993,8.8322,-0.2934,-0.0762,-0.0061
2864720,4.7956,0.2155,9.1961,-0.235,-0.0632,-0.1029
2864744,4.3,0.1341,8.5186,-0.2012,-0.0589,-0.0847
2864768,4.537,-0.4693,8.6742,-0.2225,0.0797,-0.15
2864792,4.616,-0.5578,8.6239,-0.2595,0.1591,-0.2446
2864816,4.9728,-0.0431,8.5329,-0.2998,0.202,-0.2337
2864840,5.3032,0.0192,8.5377,-0.2659,0.1852,-0.1833
2864864,6.0621,0.1245,8.8825,-0.2116,0.0514,-0.044
2864888,5.2002,-0.4573,8.4013,-0.1703,-0.1543,-0.0195
2864912,4.6088,-0.6273,8.2935,-0.2017,-0.0488,-0.0887
2864936,4.9081,-0.4046,8.7652,-0.1716,-0.0075,-0.0258
2864960,4.7788,-0.8236,8.4683,-0.1226,-0.0005,-0.0019
2864984,5.387,-0.5578,8.7867,-0.1463,0.0245,0.0698
2865008,5.4971,0.1125,9.0884,-0.1458,-0.0805,0.1567
2865032,5.284,0.0311,9.1339,-0.0586,-0.1271,0.134
2865056,5.3798,-0.4501,8.9807,0.0408,-0.2196,0.0211
2865080,5.1356,-0.5626,8.2121,-0.0216,-0.1692,-0.0224
2865104,5.2553,0.4429,8.327,-0.1186,-0.1178,0.1236
2865128,4.8794,0.261,8.0948,-0.0101,-0.1716,0.1356
2865152,5.0757,-1.0558,7.9655,0.0179,-0.0448,0.0048
2865176,6.2345,-1.5107,8.3989,-0.0783,0.0866,-0.036
2865200,6.5984,-1.3479,8.5401,-0.1439,-0.0213,-0.2641
2865224,6.4907,-0.079,8.4252,-0.1601,-0.1255,-0.373
2865248,5.8299,0.2179,8.0924,-0.0536,-0.2457,-0.2174
2865272,5.1451,-0.7254,7.3717,-0.0285,-0.2073,-0.1037
2865296,4.9416,-0.8787,7.0653,-0.1649,0.0719,-0.0496
2865320,5.9831,0.3112,8.0948,-0.1719,0.2212,0.0274
2865344,6.2704,0.4693,8.4563,0.0104,0.0706,-0.0088
2865368,5.9903,-0.6009,8.2456,0.1069,0.0157,-0.1108
2865392,6.098,-0.4932,8.4372,0.0405,0.077,-0.1127
2865416,5.8395,-0.0263,8.4491,0.0173,0.1287,-0.1183
2865440,5.9711,0.1484,8.6957,0.1188,0.1503,-0.13
2865464,5.612,-0.6536,8.497,0.1564,0.0517,-0.2494
2865488,5.1882,-0.4381,8.1834,0.0621,0.1364,-0.2819
2865512,5.0901,-0.1604,8.4803,0.0352,0.1732,-0.2132
2865536,4.9991,0.1556,8.272,0.0043,0.1868,-0.1103
2865560,5.2505,0.1724,8.3701,0.0061,0.1761,0.0533
2865584,4.9512,-0.0527,8.1834,0.028,0.1021,0.016
2865608,5.0542,-0.1604,8.1714,0.0426,0.0983,-0.0522
2865632,4.956,-0.2011,8.3701,-0.0109,0.0717,0.0013
2865656,4.5801,0.3089,8.406,-0.0536,0.0727,0.0703
2865680,4.695,0.3089,8.442,-0.0229,0.1013,0.1577
2865704,4.6184,0.2179,8.3151,-0.064,0.1591,0.0911
2865728,4.9153,0.4357,8.406,-0.0693,0.2273,-0.0469
2865752,5.4181,0.4453,8.4851,-0.041,0.239,-0.1085
2865776,5.3941,0.3208,8.4204,-0.04,0.1649,-0.1061
2865800,5.1906,-0.0431,8.4515,-0.0437,0.1644,-0.0815
2865824,5.1499,-0.079,8.4467,-0.0637,0.1697,-0.122
2865848,5.1523,0.182,8.339,-0.0858,0.1769,-0.1092
2865872,5.2696,0.5459,8.4108,-0.0613,0.1399,-0.0024
2865896,4.9464,0.1676,8.3534,-0.0003,0.0855,-0.0203
2865920,5.1691,0.0263,8.5808,0.0088,0.0837,-0.0877
2865944,5.1523,0.079,8.8945,-0.0522,0.0781,-0.0312
2865968,4.7716,0.2274,8.758,-0.1356,0.1023,0.0589
2865992,5.1499,0.5602,8.7604,-0.1082,0.1244,0.025
2866016,5.0494,0.2274,8.6981,-0.1007,0.0911,-0.0791
2866040,5.1619,0.5076,8.5353,-0.1439,0.126,-0.1407
2866064,5.5186,0.2682,8.5545,-0.1092,0.0258,-0.1207
2866088,4.9344,0.1437,8.4683,-0.1396,-0.06,-0.1855
2866112,4.6184,0.5076,8.5042,-0.0935,-0.0312,-0.2206
2866136,4.9105,0.1484,8.6455,-0.0642,-0.0144,0.0163
2866160,5.1236,0.0048,8.8873,-0.1431,-0.0517,0.2539
2866184,4.5633,0.1245,8.6933,-0.1732,-0.1761,0.247
2866208,4.3503,0.2083,8.3127,-0.1335,-0.0845,0.069
2866232,4.7549,0.2083,8.5808,-0.1204,0.0653,-0.0826
2866256,5.2529,0.3424,8.7556,-0.1636,0.1039,-0.1092
2866280,5.5115,0.3998,8.3821,-0.145,0.1047,-0.0658
2866304,5.6838,0.1628,8.3031,-0.11,0.0922,-0.1122
2866328,5.5952,0.2346,8.4539,-0.0754,0.025,-0.1831
2866352,5.2505,0.0694,8.3079,-0.0493,-0.0581,-0.1492
2866376,4.9033,-0.0958,8.3079,-0.0815,-0.033,0.0008
2866400,4.9728,-0.0934,8.7005,-0.1034,-0.0917,0.1021
2866424,4.6112,-0.17,8.4851,-0.1647,-0.1239,0.1202
2866448,4.7573,0.3496,8.3917,-0.1839,-0.0448,0.1338
2866472,5.0087,0.5962,8.7245,-0.1322,-0.0885,0.0957
2866496,4.4029,0.2227,8.5018,-0.1556,-0.1247,-0.0152
2866520,3.8499,0.3256,8.2097,-0.154,0.0051,-0.0679
2866544,4.1827,-0.1987,8.3821,-0.1524,0.1204,-0.1617
2866568,4.9368,0.3711,8.928,-0.2012,0.1164,-0.0842
2866592,5.0254,0.6847,8.9567,-0.1314,-0.0562,0.097
2866616,4.6926,-0.1508,8.5856,-0.0525,-0.0879,0.2158
2866640,4.3598,-0.826,8.2791,-0.0821,0.0874,0.1577
2866664,4.4628,-0.4501,8.3582,-0.1844,0.3014,0.2006
2866688,4.877,0.2227,8.5856,-0.1929,0.3802,0.2681
2866712,5.3271,0.4022,8.7867,-0.1095,0.2928,0.2678
2866736,5.5138,-0.0072,8.7891,-0.0818,0.1924,0.2854
2866760,5.3486,-0.3328,8.4659,-0.089,0.1577,0.23
2866784,5.4372,-0.4717,8.4396,-0.1172,0.2001,0.118
2866808,5.5067,-0.146,8.7412,-0.1415,0.2118,0.032
2866832,5.4899,0.1652,8.9663,-0.1074,0.0981,-0.0245
2866856,5.0254,0.0215,8.8059,-0.0735,0.0442,-0.0293
2866880,4.6783,-0.1867,8.5617,-0.0714,0.0629,-0.0376
2866904,4.7381,-0.1077,8.5593,-0.0957,0.1199,-0.0333
2866928,4.944,0.0263,8.667,-0.0757,0.1295,0.0272
2866952,5.0589,-0.3184,8.7412,-0.0357,0.117,0.0104
2866976,5.2601,-0.4046,8.8226,-0.0386,0.0842,-0.0184
2867000,5.0039,-0.3112,8.7747,-0.0791,0.0496,0.0003
2867024,4.7549,-0.0335,8.8394,-0.1087,0.0759,0.0429
2867048,4.9057,0.0742,8.8945,-0.0751,0.0677,0.0019
2867072,4.9249,-0.1149,8.6526,-0.0677,0.0203,-0.0706
2867096,5.035,-0.0886,8.679,-0.089,0.0184,-0.0818
2867120,4.9799,-0.0551,8.9256,-0.0831,-0.0304,-0.0837
2867144,4.7812,-0.1365,8.9543,-0.077,-0.065,-0.1037
2867168,4.6495,-0.1173,8.77,-0.0941,-0.0464,-0.1303
2867192,4.6208,-0.0982,8.6191,-0.0991,-0.0027,-0.1514
2867216,4.6831,-0.1365,8.7029,-0.0989,0.0152,-0.211
2867240,4.6136,-0.0311,8.6072,-0.0901,0.0234,-0.2222
2867264,4.6112,-0.1484,8.4779,-0.0791,0.061,-0.2209
2867288,5.1404,-0.0838,8.746,-0.0805,0.0314,-0.149
2867312,4.8554,-0.237,8.6143,-0.0855,-0.0274,-0.0602
2867336,4.616,-0.3184,8.4874,-0.0858,-0.0035,-0.0298
2867360,4.6519,-0.1173,8.7269,-0.0741,0.0008,-0.033
2867384,4.3551,0.0239,8.6503,-0.0693,-0.0101,0.0237
2867408,4.4005,0.0335,8.6622,-0.0754,0.0165,0.0855
2867432,4.3431,0.0622,8.5808,-0.0775,0.0304,0.1031
2867456,4.4053,-0.0407,8.6263,-0.0586,0.0594,0.0813
2867480,4.4484,-0.2203,8.5784,-0.0522,0.1002,0.0405
2867504,4.6783,-0.1293,8.6718,-0.0762,0.125,0.0464
2867528,4.9632,0.0862,8.7867,-0.1002,0.1077,0.118
2867552,5.1906,0.158,8.9543,-0.0954,0.0437,0.2401
2867576,4.956,-0.1963,9.1866,-0.0922,0.0123,0.2036
2867600,4.6926,-0.2801,9.3661,-0.0717,0.0626,-0.0147
2867624,4.9584,0.1508,9.268,-0.0922,0.1138,-0.1271
2867648,5.4684,0.4357,9.0621,-0.1114,0.0349,0.0051
2867672,5.0015,0.1915,8.4372,-0.0991,-0.0637,-0.02
2867696,4.7381,-0.1293,7.9631,-0.0754,-0.065,-0.1426
2867720,4.6495,-0.3041,7.9464,-0.1018,-0.0032,-0.1519
2867744,4.7022,-0.2586,8.3486,-0.1236,0.0024,-0.0648
2867768,4.6591,-0.1987,8.6167,-0.0919,-0.0101,0.0357
2867792,4.6328,-0.3543,8.6119,-0.073,0.0083,0.0986
2867816,4.7166,-0.3089,8.7532,-0.0767,0.0576,0.0671
2867840,5.0278,-0.0335,8.8921,-0.0786,0.0493,0.033
2867864,4.9057,0.0814,8.7053,-0.0983,0.0099,0.0171
2867888,4.8052,0.0599,8.6239,-0.0989,0.0298,-0.008
2867912,4.9321,-0.0575,8.6886,-0.1026,0.0416,-0.0424
2867936,5.0182,0.012,8.7724,-0.1058,0.0131,-0.0226
2867960,4.9871,-0.0144,8.8705,-0.0911,-0.0338,0.0005
2867984,4.6232,-0.2203,8.734,-0.0775,-0.0751,0.0163
2868008,4.3694,-0.2921,8.6,-0.1015,-0.033,0.0405
2868032,4.2497,-0.1915,8.5928,-0.1119,0.0149,0.0576
2868056,4.2425,-0.1197,8.4683,-0.1066,0.069,0.0573
2868080,4.4772,-0.2251,8.4467,-0.0991,0.1196,0.0669
2868104,4.8004,-0.2514,8.4851,-0.1055,0.1522,0.053
2868128,5.1787,-0.0814,8.7077,-0.1188,0.1431,0.0584
2868152,5.3103,0.0048,8.7364,-0.1034,0.0658,0.0584
2868176,5.1739,-0.0886,8.4324,-0.0946,0.0512,0.0171
2868200,5.2553,-0.1389,8.4372,-0.1047,0.0938,-0.0469
2868224,5.8227,0.0192,8.7388,-0.109,0.0831,-0.0413
2868248,5.8945,-0.0814,8.758,-0.0877,-0.004,-0.0698
2868272,5.8897,-0.1269,8.6646,-0.0834,-0.0565,-0.1591
2868296,5.8897,-0.1317,8.691,-0.0823,-0.1045,-0.2342
2868320,5.691,-0.2921,8.6048,-0.0981,-0.1498,-0.3344
2868344,5.5474,-0.2274,8.6431,-0.1567,-0.1668,-0.3619
2868368,5.612,-0.1293,8.6574,-0.1617,-0.1692,-0.3645
2868392,5.4923,-0.103,8.6503,-0.1476,-0.2348,-0.4149
2868416,5.3558,-0.1748,8.5329,-0.1572,-0.2499,-0.3933
2868440,5.3726,-0.2921,8.5497,-0.1935,-0.2454,-0.3651
2868464,5.2625,-0.3783,8.5736,-0.23,-0.2667,-0.392
2868488,5.1643,0.2514,8.5018,-0.2742,-0.2878,-0.4245
2868512,4.9991,0.6943,8.5114,-0.2542,-0.3341,-0.3613
2868536,4.8387,0.2777,8.3127,-0.2044,-0.3224,-0.3659
2868560,5.1427,-0.1125,8.418,-0.1966,-0.295,-0.4615
2868584,5.4205,-0.012,8.4467,-0.2025,-0.3219,-0.4831
2868608,5.3917,0.3567,8.2935,-0.2417,-0.319,-0.4429
2868632,5.3439,0.4094,8.2313,-0.2281,-0.308,-0.2987
2868656,5.2625,-0.1389,8.0948,-0.2148,-0.2785,-0.2454
2868680,5.5522,-0.6393,8.1163,-0.2292,-0.2417,-0.2705
2868704,5.636,-0.4214,8.1163,-0.284,-0.2174,-0.3587
2868728,5.7006,0.2155,8.2624,-0.3107,-0.219,-0.3909
2868752,5.5713,0.3089,8.2624,-0.275,-0.2475,-0.3691
2868776,5.6551,0.2035,8.2744,-0.275,-0.2124,-0.3331
2868800,5.6479,0.1772,8.1379,-0.2686,-0.2206,-0.3248
2868824,5.3654,0.0024,7.841,-0.284,-0.1791,-0.3387
2868848,5.3941,0.1891,7.841,-0.308,-0.0967,-0.3683
2868872,5.4468,0.2394,7.999,-0.2928,-0.0898,-0.3749
2868896,5.3151,0.2227,7.9033,-0.2846,-0.0442,-0.3778
2868920,5.4348,0.2131,7.92,-0.2681,-0.0253,-0.316
2868944,5.4803,0.3136,7.9607,-0.2563,-0.0232,-0.2062
2868968,5.3606,0.2322,8.011,-0.2324,-0.0115,-0.1692
2868992,5.3008,0.3041,8.1427,-0.2052,0.0173,-0.1404
2869016,5.3654,0.1987,8.1547,-0.1783,0.033,-0.0584
2869040,5.387,0.2801,8.2025,-0.1791,0.036,0.0293
2869064,5.3654,0.3017,8.2576,-0.1567,0.0674,0.0485
2869088,5.4612,0.2705,8.3318,-0.1319,0.0781,0.0586
2869112,5.3989,0.1484,8.1882,-0.1114,0.0927,0.0661
2869136,5.4037,0.1269,8.1211,-0.114,0.1234,0.0797
2869160,5.4612,0.2011,8.0709,-0.0943,0.1122,0.0914
2869184,5.466,0.249,7.9751,-0.0746,0.1167,0.1332
2869208,5.3941,0.0886,7.9104,-0.0309,0.1508,0.1673
2869232,5.4468,-0.0838,7.9392,-0.016,0.2078,0.2068
2869256,5.7054,-0.0503,8.169,0.0003,0.2388,0.2731
2869280,5.7676,-0.0527,8.2576,0.0091,0.2345,0.3152
2869304,5.7437,-0.0168,8.2384,0.0384,0.2102,0.3309
2869328,5.5857,-0.0215,8.1786,0.0671,0.2001,0.3427
2869352,5.5019,0.0622,8.181,0.0983,0.2292,0.3784
2869376,5.5689,-0.0455,8.1906,0.13,0.2403,0.4274
2869400,5.5713,-0.2059,8.2169,0.1271,0.2534,0.4231
2869424,5.6072,-0.0958,8.3821,0.1247,0.271,0.4149
2869448,5.4731,0.012,8.7149,0.1572,0.3,0.4437
2869472,5.442,0.0599,8.9926,0.1703,0.3048,0.5343
2869496,5.1116,-0.158,8.6526,0.1647,0.3301,0.6001
2869520,5.2218,-0.158,8.3653,0.1474,0.445,0.4762
2869544,5.7293,0.0958,8.3965,0.1423,0.4106,0.3376
2869568,5.6144,0.0742,7.9368,0.1436,0.3179,0.1745
2869592,5.679,-0.1245,8.0637,0.1426,0.283,0.1108
2869616,5.6767,-0.3041,8.3677,0.1234,0.2092,0.1314
2869640,5.375,-0.2227,8.5449,0.0975,0.1692,0.2478
2869664,5.3798,-0.3855,8.6814,0.1018,0.1807,0.4343
2869688,5.2768,-0.431,8.6455,0.1047,0.1362,0.4559
2869712,5.2864,-0.0455,8.497,0.1332,0.141,0.3944
2869736,5.5545,0.0646,8.5808,0.1308,0.097,0.4538
2869760,5.205,-0.1317,8.3486,0.1252,0.097,0.4234
2869784,5.3271,-0.0742,8.5545,0.1212,0.1274,0.3357
2869808,5.43,0.1963,8.7005,0.1226,0.0914,0.3168
2869832,5.1739,-0.0407,8.6215,0.121,0.0144,0.3269
2869856,5.1787,-0.1987,8.5473,0.1346,0.016,0.2936
2869880,5.0589,-0.1365,8.4707,0.1103,0.012,0.3112
2869904,4.9656,-0.0407,8.4132,0.1037,0.0293,0.3171
2869928,4.968,-0.0838,8.4779,0.1031,0.037,0.3208
2869952,5.1571,-0.091,8.6095,0.0919,0.024,0.3691
2869976,4.8554,-0.1437,8.4132,0.0693,-0.0123,0.3882
2870000,4.9081,-0.0742,8.4563,0.0701,0.0256,0.3317
2870024,5.2218,0.0072,8.6622,0.0679,-0.0099,0.3603
2870048,4.9799,-0.1437,8.6048,0.0597,-0.0458,0.372
2870072,4.8267,-0.2777,8.4803,0.044,-0.0248,0.2681
2870096,4.6064,-0.1269,8.3989,-0.0157,-0.0011,0.1958
2870120,4.7333,0.1484,8.5329,-0.0152,0.0139,0.1892
2870144,4.6902,-0.2059,8.5234,-0.0117,0.0442,0.166
2870168,4.9153,-0.4262,8.5497,-0.0213,0.0794,0.1194
2870192,5.2194,0.2155,8.6191,-0.0362,0.0762,0.1418
2870216,4.9488,0.0263,8.2648,0.0064,0.0099,0.1998
2870240,4.9321,-0.5507,8.0852,-0.0075,0.0584,0.1998
2870264,5.0206,-0.4405,8.3797,-0.0525,0.1021,0.223
2870288,5.0709,0.0359,8.6287,-0.0482,0.1402,0.2635
2870312,5.1954,-0.1101,8.8131,-0.0165,0.1156,0.2785
2870336,5.2481,-0.3352,8.7101,-0.025,0.0847,0.2268
2870360,5.3391,-0.2083,8.6933,-0.0709,0.093,0.2052
2870384,5.3223,-0.1317,8.5234,-0.0863,0.0773,0.1537
2870408,5.4013,-0.2227,8.4204,-0.1018,0.0741,0.0661
2870432,5.4205,-0.1317,8.43,-0.1247,0.0426,0.0195
2870456,5.3726,-0.261,8.3558,-0.117,0.0011,-0.0064
2870480,5.3463,-0.486,8.3127,-0.1236,-0.0064,-0.0562
2870504,5.284,-0.4238,8.3821,-0.1516,-0.012,-0.1063
2870528,4.9632,-0.3591,8.3653,-0.1924,-0.016,-0.13
2870552,4.8937,0.0503,8.5473,-0.2078,0.0144,-0.1444
2870576,4.6687,-0.1245,8.5473,-0.1839,0.0317,-0.1332
2870600,4.8746,-0.4453,8.8562,-0.1956,0.0887,-0.1247
2870624,5.0925,-0.2298,9.1387,-0.2012,0.0714,-0.1636
2870648,4.7477,-0.5674,8.8729,-0.1346,-0.0147,-0.2022
2870672,4.367,-0.7949,8.3773,-0.1388,0.0056,-0.1974
2870696,4.3958,-0.5171,8.3725,-0.1359,0.0165,-0.0893
2870720,4.3287,-0.2969,8.3534,-0.1652,0.0765,0.0064
2870744,4.7285,0.1365,8.4276,-0.1655,0.1577,0.1159
2870768,5.2457,-0.2777,8.2145,-0.1588,0.1569,0.1279
2870792,5.4468,-0.4956,8.0948,-0.2148,0.1404,0.0218
2870816,5.6886,-0.1341,8.418,-0.2595,0.0903,-0.1015
2870840,5.3989,-0.1844,8.7388,-0.2515,0.032,-0.2041
2870864,5.2768,-0.5914,8.9735,-0.2177,0.0234,-0.3198
2870888,5.4348,-0.7207,9.2296,-0.2262,-0.0096,-0.3301
2870912,5.272,-0.4812,9.2775,-0.2403,-0.0565,-0.2603
2870936,4.9632,-0.5267,9.1698,-0.1863,-0.069,-0.1929
2870960,4.9871,-0.6512,9.0142,-0.154,-0.085,-0.1964
2870984,4.6902,-0.4812,8.8107,-0.1743,-0.1122,-0.1903
2871008,4.695,-0.0838,8.7436,-0.1748,-0.1284,-0.1631
2871032,4.3359,-0.4022,8.3462,-0.1447,-0.145,-0.1668
2871056,4.3838,-0.5483,8.3414,-0.1545,-0.1015,-0.2305
2871080,4.2737,-0.5148,8.2049,-0.1903,-0.0498,-0.2262
2871104,4.4341,-0.3208,8.3725,-0.2001,0.0538,-0.1535
2871128,4.9057,-0.6488,8.4132,-0.1511,0.1103,-0.2073
2871152,5.2505,-0.6129,8.4683,-0.1732,0.1244,-0.2862
2871176,5.4755,-0.1748,8.5856,-0.1815,0.0834,-0.3222
2871200,5.4396,0.1413,8.6503,-0.1719,0.0309,-0.1809
2871224,5.1284,-0.7015,8.4874,-0.1252,0.0197,-0.1588
2871248,5.3271,-0.5076,8.6215,-0.1585,0.0381,-0.202
2871272,5.4013,-0.1221,8.8945,-0.1716,-0.0293,-0.1428
2871296,4.9153,-0.1939,8.7891,-0.1322,-0.0885,-0.122
2871320,4.6687,-0.4525,8.5856,-0.122,-0.0602,-0.1399
2871344,4.8195,-0.3926,8.6143,-0.1468,-0.0538,-0.0925
2871368,4.6687,-0.2993,8.4683,-0.1628,-0.053,-0.0927
2871392,4.6328,-0.2586,8.4372,-0.1479,-0.0397,-0.0445
2871416,4.4436,-0.5602,8.3031,-0.1519,0.012,-0.037
2871440,4.7118,-0.5483,8.4539,-0.154,0.0789,-0.0802
2871464,5.0733,-0.4118,8.6072,-0.1343,0.081,-0.1034
2871488,5.2601,-0.2059,8.6455,-0.1159,0.0685,-0.1031
2871512,5.2074,-0.3759,8.5377,-0.13,0.044,0.0064
2871536,5.1954,-0.6273,8.4659,-0.1551,0.0738,-0.0176
2871560,5.3199,-0.2729,8.588,-0.1607,0.0554,-0.114
2871584,5.363,-0.2418,8.6431,-0.1343,0.0234,-0.0767
2871608,5.1643,-0.4645,8.5832,-0.1402,-0.0008,-0.0866
2871632,5.205,-0.328,8.6622,-0.1391,-0.0195,-0.0703
2871656,5.023,-0.3998,8.5377,-0.1378,-0.0413,-0.0488
2871680,4.8914,-0.5028,8.3629,-0.1484,-0.0181,-0.049
2871704,5.0302,-0.3974,8.5042,-0.1463,-0.0056,-0.0506
2871728,5.0757,-0.4477,8.4635,-0.1287,-0.0341,-0.0376
2871752,5.0637,-0.5028,8.43,-0.1383,-0.0216,-0.045
2871776,5.3654,-0.3807,8.5473,-0.1282,-0.0322,-0.0632
2871800,5.351,-0.3711,8.521,-0.1388,-0.0826,-0.0282
2871824,5.2361,-0.419,8.4036,-0.145,-0.0815,0.0032
2871848,5.3247,-0.4741,8.4252,-0.1431,-0.0757,-0.0091
2871872,5.1667,-0.5004,8.2768,-0.1503,-0.0632,-0.0424
2871896,5.2241,-0.3663,8.3246,-0.1447,-0.0256,-0.0397
2871920,5.2313,-0.4812,8.3366,-0.1183,-0.0032,-0.0421
2871944,5.2625,-0.5555,8.339,-0.101,-0.016,-0.0384
2871968,5.1499,-0.4549,8.2911,-0.1146,0.0059,0.0067
2871992,5.2002,-0.5243,8.3701,-0.0959,0.0488,0.0075
2872016,5.5138,-0.51,8.5569,-0.0866,0.0173,-0.0069
2872040,5.3343,-0.5076,8.4276,-0.1031,-0.0059,0.0027
2872064,5.3175,-0.5004,8.3629,-0.0983,-0.0003,-0.0136
2872088,5.2744,-0.4908,8.351,-0.1034,-0.0093,-0.0352
2872112,5.2265,-0.4597,8.2935,-0.1167,0.02,-0.0386
2872136,5.3846,-0.4286,8.4587,-0.1055,0.0067,-0.0149
2872160,5.1715,-0.6081,8.3175,-0.1095,0.0232,-0.0408
2872184,5.4324,-0.4764,8.4276,-0.0858,0.0021,-0.0256
2872208,5.1164,-0.6728,8.2265,-0.101,0.024,-0.0237
2872232,5.3415,-0.4884,8.3677,-0.0999,0.0469,-0.0616
2872256,5.3103,-0.4956,8.3462,-0.1196,0.0376,-0.0402
2872280,5.4396,-0.3567,8.4491,-0.1023,0.028,-0.0117
2872304,5.3367,-0.6345,8.3199,-0.0973,0.0179,-0.0218
2872328,5.3486,-0.5507,8.3725,-0.1148,0.0314,-0.0408
2872352,5.2409,-0.4525,8.3007,-0.1212,0.0242,-0.0298
2872376,5.3582,-0.4764,8.418,-0.113,0.0205,-0.0091
2872400,5.1739,-0.5578,8.3079,-0.0967,0.0285,-0.0445
2872424,5.3079,-0.5722,8.3414,-0.0914,0.0506,-0.0642
2872448,5.3558,-0.486,8.4252,-0.1066,0.0314,-0.0426
2872472,5.3582,-0.4693,8.4228,-0.0818,0.0173,-0.037
2872496,5.3391,-0.6177,8.3869,-0.0837,0.0088,-0.0669
2872520,5.3941,-0.3615,8.3677,-0.1002,0.0059,-0.049
2872544,5.4085,-0.4788,8.3246,-0.0775,-0.0104,-0.0389
2872568,5.296,-0.5818,8.2408,-0.0831,-0.0077,-0.0448
2872592,5.3534,-0.5076,8.3342,-0.0821,-0.0003,-0.0224
2872616,5.3127,-0.5578,8.2959,-0.0885,0.0083,-0.032
2872640,5.3893,-0.4932,8.3606,-0.0943,0.0317,-0.0589
2872664,5.5282,-0.4094,8.4659,-0.0741,-0.0061,-0.0493
2872688,5.3774,-0.5411,8.3845,-0.0778,-0.0085,-0.0362
2872712,5.2912,-0.5124,8.3701,-0.0887,-0.0013,-0.0605
2872736,5.2888,-0.3783,8.3534,-0.0922,-0.0035,-0.0568
2872760,5.2313,-0.4334,8.3127,-0.0946,0.0115,-0.033
2872784,5.272,-0.5243,8.3725,-0.0834,0.0109,-0.0426
2872808,5.2553,-0.4788,8.3055,-0.0967,0.012,-0.0266
2872832,5.3295,-0.4501,8.3486,-0.0941,0.0083,-0.0035
2872856,5.3702,-0.4597,8.2959,-0.0906,0.0115,0.0218
2872880,5.4516,-0.486,8.3414,-0.0933,0.0107,0.0157
2872904,5.4348,-0.4597,8.2791,-0.1013,-0.0021,0.012
2872928,5.4348,-0.5052,8.3175,-0.1047,-0.0053,0.0005
2872952,5.3056,-0.5028,8.2887,-0.1053,0.0016,-0.0426
2872976,5.3726,-0.4549,8.2791,-0.0943,0.0264,-0.0517
2873000,5.4564,-0.4597,8.3701,-0.089,0.0213,-0.0458
2873024,5.4827,-0.4477,8.2696,-0.0679,0.0024,-0.0432
2873048,5.454,-0.4788,8.2672,-0.0735,0.0131,-0.0229
2873072,5.4588,-0.4405,8.2815,-0.081,0.0101,-0.0232
2873096,5.3965,-0.4238,8.3701,-0.0829,0.0141,-0.024
2873120,5.3917,-0.4549,8.3151,-0.0757,0.0123,-0.0155
2873144,5.2625,-0.5626,8.2193,-0.0829,0.0203,-0.0333
2873168,5.3558,-0.3998,8.2073,-0.0973,0.049,-0.0168
2873192,5.5354,-0.4381,8.3677,-0.0821,0.029,-0.0173
2873216,5.2194,-0.5076,8.2025,-0.0887,0.0229,-0.0181
2873240,5.2768,-0.4477,8.272,-0.0887,0.053,0.0155
2873264,5.4564,-0.498,8.3246,-0.0925,0.0597,0.0288
2873288,5.4612,-0.5028,8.3582,-0.0978,0.0568,0.0099
2873312,5.5234,-0.4286,8.3797,-0.0965,0.0341,0.0133
2873336,5.4995,-0.4262,8.3749,-0.093,0.0269,0.0261
2873360,5.4492,-0.5124,8.3294,-0.0975,0.0131,0.0077
2873384,5.454,-0.3855,8.2145,-0.0949,0.0226,0.0115
2873408,5.4755,-0.4429,8.2911,-0.0954,0.0218,0.0272
2873432,5.3941,-0.5507,8.2624,-0.0946,0.0336,0.0144
2873456,5.4564,-0.5052,8.3366,-0.0997,0.0352,0.0096
2873480,5.4085,-0.4908,8.3127,-0.0959,0.024,0.0181
2873504,5.4181,-0.4932,8.3199,-0.0951,0.0365,0.0029
2873528,5.5713,-0.5124,8.3821,-0.0807,0.0141,-0.0128
2873552,5.4516,-0.5267,8.2672,-0.1005,0.008,-0.0115
2873576,5.4492,-0.5195,8.351,-0.1021,-0.0037,-0.0211
2873600,5.3295,-0.5219,8.2265,-0.1055,0.0192,-0.0344
2873624,5.387,-0.5076,8.3653,-0.0922,0.0181,-0.0626
2873648,5.4444,-0.4214,8.1451,-0.0799,0.0192,-0.0586
2873672,5.5115,-0.5363,8.3246,-0.0866,0.0234,0.0397
2873696,5.3606,-0.5746,8.2289,-0.0842,0.0242,-0.0048
2873720,5.5162,-0.4286,8.2744,-0.0917,0.0344,-0.0357
2873744,5.4947,-0.4501,8.2504,-0.0919,0.0282,-0.0181
2873768,5.4468,-0.4788,8.3558,-0.0951,0.028,-0.0211
2873792,5.351,-0.589,8.2145,-0.0917,0.0189,-0.0253
2873816,5.2744,-0.4956,8.2313,-0.1119,0.0552,-0.0176
2873840,5.6,-0.3448,8.3869,-0.0895,0.0424,0.0077
2873864,5.3271,-0.68,8.1834,-0.0767,0.0091,-0.0085
2873888,5.1691,-0.6225,8.0948,-0.1034,0.0584,-0.0205
2873912,5.4755,-0.3687,8.3318,-0.1074,0.0727,-0.0085
2873936,5.5905,-0.419,8.3701,-0.0874,0.0517,0.0075
2873960,5.3415,-0.6416,8.327,-0.0877,0.0456,-0.0357
2873984,5.4133,-0.4788,8.2768,-0.0925,0.0496,-0.0109
2874008,5.4157,-0.5626,8.3007,-0.1061,0.0608,0.0072
2874032,5.466,-0.3974,8.3127,-0.0967,0.0546,-0.0117
2874056,5.3606,-0.5459,8.2241,-0.0853,0.0394,-0.0096
2874080,5.3486,-0.5291,8.2408,-0.0951,0.0669,-0.0125
2874104,5.454,-0.5243,8.3629,-0.0861,0.0501,-0.0208
2874128,5.3391,-0.5195,8.2648,-0.0858,0.044,0
2874152,5.3223,-0.5387,8.2528,-0.0853,0.0648,-0.0024
2874176,5.2936,-0.5531,8.2768,-0.0821,0.0794,-0.0184
2874200,5.4324,-0.419,8.3246,-0.0751,0.0901,-0.0189
2874224,5.454,-0.5243,8.3821,-0.0682,0.0648,-0.0285
2874248,5.4157,-0.5004,8.3462,-0.0815,0.0528,0.0043
2874272,5.387,-0.5626,8.3438,-0.0866,0.0504,-0.0064
2874296,5.3391,-0.4693,8.339,-0.0967,0.0421,-0.032
2874320,5.284,-0.3831,8.3701,-0.0965,0.0506,-0.0123
2874344,5.3151,-0.51,8.351,-0.0767,0.0432,-0.0021
2874368,5.2936,-0.5698,8.3127,-0.0879,0.0466,0.0011
2874392,5.2912,-0.4764,8.3821,-0.0853,0.0472,0.0322
2874416,5.217,-0.6129,8.3031,-0.0759,0.0381,0.0083
2874440,5.2289,-0.4669,8.2887,-0.089,0.0621,0.016
2874464,5.442,-0.498,8.3845,-0.0877,0.0522,0.0261
2874488,5.3151,-0.5052,8.339,-0.0805,0.0312,0.0101
2874512,5.272,-0.5387,8.3414,-0.0815,0.0378,0.0274
2874536,5.4636,-0.4812,8.4348,-0.0815,0.036,0.0328
2874560,5.5522,-0.4525,8.3965,-0.0738,0.0123,0.0032
2874584,5.8059,-0.5363,8.5114,-0.0834,-0.0357,0.041
2874608,5.6216,-0.4956,8.3486,-0.0794,-0.0717,0.0035
2874632,5.9113,-0.3663,8.497,-0.0514,-0.1252,-0.04
2874656,5.8466,-0.4046,8.3438,-0.0584,-0.1623,-0.0573
2874680,6.0047,-0.3855,8.4013,-0.0666,-0.2393,-0.0107
2874704,5.9328,-0.5555,8.2935,-0.0597,-0.3067,-0.0442
2874728,6.0956,-0.5004,8.3845,-0.0538,-0.4676,-0.1948
2874752,5.9113,-0.4573,7.9344,-0.0624,-0.5065,-0.199
2874776,5.6288,-0.3759,7.8338,-0.0421,-0.4559,-0.1817
2874800,5.7269,-0.407,7.9248,-0.0317,-0.3328,-0.1593
2874824,5.9855,-0.4453,8.2217,-0.0629,-0.3126,-0.2238
2874848,6.3638,-0.1389,8.0709,-0.0522,-0.3299,-0.1799
2874872,6.5194,-0.3735,8.0661,-0.0413,-0.4149,-0.1527
2874896,6.4883,-0.3807,7.8362,-0.0365,-0.497,-0.1937
2874920,6.6655,-0.2514,7.7835,-0.0376,-0.5225,-0.1895
2874944,6.6918,-0.249,7.6902,-0.0509,-0.5788,-0.1807
2874968,6.7301,-0.0407,7.4819,-0.0416,-0.6379,-0.2036
2874992,6.8953,-0.0024,7.2185,0.0005,-0.6803,-0.2049
2875016,6.9671,0.158,6.9935,0.093,-0.8087,-0.2411
2875040,7.4148,-0.2203,7.094,0.1903,-0.9004,-0.2614
2875064,7.3047,-0.4717,7.501,0.1018,-1.0906,-0.3944
2875088,7.4005,0.0287,7.5369,0.016,-1.1343,-0.4077
2875112,7.7812,0.1772,7.1682,-0.0024,-1.2097,-0.4082
2875136,8.0732,-0.0215,7.1778,-0.0429,-1.3827,-0.397
2875160,7.6447,0.1293,6.4643,-0.1396,-1.4154,-0.2707
2875184,7.5058,0.2322,5.8395,-0.2105,-1.3006,-0.1812
2875208,8.0014,0.2586,5.7437,-0.2547,-1.2345,-0.243
2875232,8.1092,0.6584,5.442,-0.2595,-1.2385,-0.2896
2875256,8.6526,0.6057,5.3846,-0.2046,-1.2481,-0.3293
2875280,8.7628,0.6943,4.8866,-0.1591,-1.3832,-0.3485
2875304,8.418,0.4956,4.6663,-0.1588,-1.3057,-0.291
2875328,9.2751,0.3543,4.5681,-0.203,-1.2601,-0.299
2875352,8.9926,0.5267,4.2593,-0.2507,-1.3179,-0.3062
2875376,8.8538,0.7135,3.735,-0.2851,-1.2644,-0.3064
2875400,9.007,0.8236,3.2968,-0.2936,-1.1615,-0.2928
2875424,9.2057,0.8236,2.8874,-0.304,-1.0976,-0.2683
2875448,9.3087,0.9026,2.4445,-0.3168,-1.0099,-0.2102
2875472,10.2687,0.5626,2.7174,-0.3619,-1.0568,-0.2329
2875496,10.0772,0.6776,2.478,-0.4322,-1.2095,-0.2603
2875520,9.2727,1.0654,1.6975,-0.4783,-1.186,-0.2835
2875544,9.4882,1.0343,1.585,-0.4863,-1.04,-0.2854
2875568,9.4882,1.1827,1.3479,-0.4786,-0.9369,-0.3075
2875592,10.0149,1.154,1.5107,-0.4708,-0.8348,-0.3262
2875616,10.2735,1.233,1.4868,-0.4295,-0.8889,-0.3826
2875640,9.9695,1.0271,1.0702,-0.4295,-0.8855,-0.4085
2875664,9.2919,1.1588,0.5842,-0.4906,-0.8247,-0.4429
2875688,9.0022,1.5227,0.1413,-0.4887,-0.6448,-0.4466
2875712,9.074,1.822,-0.0479,-0.4314,-0.4445,-0.3336
2875736,9.6367,1.3838,0.3017,-0.3981,-0.3048,-0.2646
2875760,10.082,1.1013,0.6297,-0.4583,-0.2891,-0.3517
2875784,10.2448,1.4006,0.9505,-0.5132,-0.3714,-0.4445
2875808,9.5577,1.7789,0.735,-0.5423,-0.4626,-0.4501
2875832,8.7029,2.4924,0.012,-0.4887,-0.344,-0.4239
2875856,8.6239,2.8706,-0.4764,-0.3046,-0.0552,-0.3768
2875880,9.4547,2.478,-0.3065,-0.1319,0.1889,-0.2606
2875904,10.5632,1.8483,0.2682,-0.089,0.1801,-0.1961
2875928,11.1618,2.1931,0.4118,-0.0997,-0.0706,-0.1777
2875952,10.5872,1.9321,0.5794,-0.0735,-0.3078,-0.2313
2875976,10.2328,2.0255,0.1796,-0.1831,-0.3834,-0.2795
2876000,9.5289,2.1955,-0.1197,-0.2193,-0.3539,-0.2904
2876024,9.2296,2.5618,-0.3496,-0.1988,-0.1713,-0.3014
2876048,9.3829,2.5546,-0.2442,-0.1503,0.0117,-0.2478
2876072,9.7444,2.3487,0.237,-0.1479,0.0655,-0.3483
2876096,10.003,2.6169,0.34,-0.1775,0.0197,-0.4104
2876120,9.8833,2.6719,0.3017,-0.1348,-0.0962,-0.3501
2876144,9.1794,2.4517,-0.091,-0.1268,-0.129,-0.2454
2876168,9.0716,2.66,-0.1604,-0.1348,-0.0245,-0.1761
2876192,9.3685,2.909,-0.0407,-0.1005,0.0266,-0.11
2876216,9.4188,3.0167,0.0048,-0.049,0.0293,-0.0887
2876240,9.4451,3.0263,-0.0383,0.0152,0.0237,-0.1026
2876264,9.4116,2.7773,-0.0431,0.0554,-0.0043,-0.0898
2876288,9.2799,2.6288,-0.1317,0.0237,-0.049,-0.0562
2876312,9.2153,2.9329,-0.1748,-0.0035,-0.0477,-0.0234
2876336,9.3877,3.395,-0.1796,0.1156,-0.0679,0.029
2876360,9.2775,3.055,-0.3903,0.2097,-0.0245,0.0725
2876384,9.5265,2.7318,-0.3639,0.21,0.0157,0.0797
2876408,9.6462,2.478,-0.3352,0.118,-0.0168,0.0365
2876432,9.5984,2.6312,-0.3639,-0.0059,-0.057,-0.0304
2876456,9.5265,2.885,-0.3831,-0.0554,-0.1156,-0.0735
2876480,9.1075,3.1292,-0.6177,-0.085,-0.133,-0.052
2876504,8.916,3.1149,-0.7207,-0.073,-0.0831,-0.0149
2876528,8.9016,2.9999,-0.7685,-0.0818,0.0091,0.0093
2876552,9.2273,3.0981,-0.6105,-0.0994,0.0618,-0.0168
2876576,9.2919,3.158,-0.656,-0.1095,0.06,-0.0298
2876600,9.3733,3.158,-0.644,-0.1039,0.0759,-0.0568
2876624,9.4954,2.9712,-0.5794,-0.0973,0.0925,-0.0834
2876648,9.6151,2.8036,-0.4621,-0.1364,0.0722,-0.1143
2876672,9.5146,3.1795,-0.4645,-0.1548,0.0413,-0.1276
2876696,9.6199,3.1675,-0.3735,-0.0882,0.0168,-0.1234
2876720,9.5648,2.9161,-0.3184,-0.0536,-0.0498,-0.105
2876744,9.268,2.9592,-0.4573,-0.0506,-0.0786,-0.057
2876768,9.0309,3.0358,-0.3831,-0.0608,-0.0256,-0.029
2876792,9.2871,3.0933,-0.17,-0.0541,0.0213,-0.0085
2876816,9.268,3.1867,-0.2969,-0.0469,0.0293,-0.024
2876840,9.1698,3.1915,-0.5243,-0.0253,0.0866,-0.0245
2876864,9.3326,2.976,-0.4908,-0.0144,0.1167,0.0104
2876888,9.4068,2.9832,-0.4717,-0.0434,0.0978,0.0338
2876912,9.3206,3.1484,-0.5435,-0.0616,0.0821,0.0472
2876936,9.3709,3.2561,-0.6129,-0.0514,0.0951,0.0405
2876960,9.4858,3.1101,-0.5842,-0.0448,0.1026,0.0373
2876984,9.5888,3.043,-0.5938,-0.0608,0.1021,0.0035
2877008,9.5936,3.0813,-0.577,-0.0677,0.1023,-0.0173
2877032,9.754,3.0837,-0.4693,-0.064,0.0925,-0.0461
2877056,9.7276,2.9999,-0.4669,-0.0608,0.0517,-0.0498
2877080,9.5146,2.9975,-0.5315,-0.0807,0.0469,-0.048
2877104,9.6007,3.1196,-0.4477,-0.0799,0.061,-0.0517
2877128,9.6175,3.0406,-0.4214,-0.061,0.0346,-0.0424
2877152,9.4595,3.0239,-0.486,-0.0634,0.0461,-0.0168
2877176,9.6438,3.0095,-0.3376,-0.0733,0.0578,0.0037
2877200,9.7899,3.0478,-0.2346,-0.073,-0.0013,-0.0117
2877224,9.4978,3.0646,-0.3304,-0.0869,-0.0237,-0.0408
2877248,9.3398,3.0933,-0.3639,-0.0879,-0.0117,-0.0482
2877272,9.2464,2.9066,-0.3974,-0.0978,-0.0008,-0.0045
2877296,9.3206,3.0454,-0.3903,-0.1378,-0.0005,0.0432
2877320,9.3302,3.3758,-0.3974,-0.1236,-0.0072,0.0352
2877344,9.3685,3.3782,-0.4621,-0.0935,0.0147,-0.0248
2877368,9.4858,3.3136,-0.5124,-0.0786,0.0488,-0.1021
2877392,9.6486,3.0813,-0.5124,-0.0762,0.0802,-0.1279
2877416,9.7827,2.9113,-0.4501,-0.1045,0.0837,-0.1212
2877440,9.833,2.715,-0.3615,-0.1585,0.0405,-0.1343
2877464,9.6295,3.0071,-0.3519,-0.2201,-0.0149,-0.1287
2877488,9.3518,3.3519,-0.4741,-0.2158,-0.0365,-0.081
2877512,9.1195,3.4189,-0.565,-0.1697,-0.0077,-0.0093
2877536,9.2656,3.4261,-0.3974,-0.149,0.0389,-0.0173
2877560,9.4332,3.5003,-0.3472,-0.1071,0.0421,-0.0749
2877584,9.4403,3.2896,-0.328,-0.0746,0.0536,-0.1021
2877608,9.4882,3.0574,-0.2658,-0.0855,0.0474,-0.0733
2877632,9.5624,3.1508,-0.237,-0.1103,0.0314,-0.0514
2877656,9.572,3.2346,-0.2059,-0.1156,-0.0024,-0.0594
2877680,9.3494,3.2657,-0.2586,-0.1135,-0.0168,-0.0464
2877704,9.0764,3.3279,-0.3711,-0.11,-0.0064,0.0035
2877728,9.0692,3.4285,-0.4405,-0.0903,0.0557,0.0514
2877752,9.2488,3.3495,-0.3136,-0.0762,0.0706,0.0781
2877776,9.165,3.2992,-0.3855,-0.0783,0.0613,0.0871
2877800,9.1985,3.3375,-0.3831,-0.0786,0.0853,0.0829
2877824,9.2249,3.3279,-0.3472,-0.0703,0.0906,0.089
2877848,9.2703,3.3543,-0.3807,-0.0621,0.101,0.097
2877872,9.5241,3.3088,-0.237,-0.0392,0.1252,0.0765
2877896,9.7372,3.1268,-0.0934,-0.0192,0.1007,0.0629
2877920,9.6534,2.9473,-0.1173,-0.0365,0.0546,0.0738
2877944,9.5864,2.8994,-0.1389,-0.0549,0.0368,0.0935
2877968,9.5888,2.976,-0.0886,-0.0919,0.0437,0.0653
2877992,9.5768,3.158,-0.0479,-0.0983,0.0131,0.0136
2878016,9.1626,3.2561,-0.2729,-0.0866,0.0309,0.0309
2878040,9.2416,3.1891,-0.316,-0.053,0.1015,0.0552
2878064,9.4571,3.0718,-0.2969,-0.0418,0.101,0.0917
2878088,9.3781,3.1029,-0.3543,-0.0432,0.077,0.1037
2878112,9.5122,3.134,-0.34,-0.0333,0.0922,0.1021
2878136,9.6462,3.0239,-0.2921,-0.0314,0.0786,0.0919
2878160,9.6343,2.9473,-0.2897,-0.0525,0.0727,0.0781
2878184,9.651,2.9305,-0.2729,-0.0743,0.0632,0.0624
2878208,9.6534,2.9951,-0.2777,-0.0754,0.0525,0.0613
2878232,9.6271,2.8994,-0.316,-0.0895,0.0653,0.0602
2878256,9.6534,2.8395,-0.2873,-0.105,0.0674,0.0394
2878280,9.5265,2.8204,-0.3496,-0.1143,0.0701,0.0669
2878304,9.5289,2.7198,-0.395,-0.1236,0.0794,0.0975
2878328,9.5696,2.8156,-0.4477,-0.1535,0.0959,0.138
2878352,9.7755,2.8946,-0.4142,-0.17,0.0957,0.1154
2878376,9.912,3.043,-0.3304,-0.1668,0.0576,0.049
2878400,9.8138,3.0765,-0.34,-0.1455,0.036,-0.0056
2878424,9.7516,2.9856,-0.2538,-0.1388,0.0328,-0.0637
2878448,9.7324,2.8276,-0.1508,-0.1476,0.0256,-0.1151
2878472,9.7109,2.8084,-0.0622,-0.1721,0.0187,-0.1545
2878496,9.572,2.8156,0.0048,-0.1881,-0.0051,-0.174
2878520,9.3254,2.9449,-0.0479,-0.2004,-0.0101,-0.1743
2878544,9.2009,3.1819,-0.146,-0.1719,0.0314,-0.133
2878568,9.2895,3.0598,-0.0527,-0.1303,0.057,-0.0562
2878592,9.4044,2.8922,-0.0359,-0.1146,0.0562,-0.0245
2878616,9.4547,2.885,-0.0215,-0.1228,0.0477,-0.0011
2878640,9.4906,2.9209,-0.0215,-0.1204,0.0213,0.0338
2878664,9.3901,2.9856,-0.1125,-0.1164,0.024,0.077
2878688,9.493,3.158,-0.1389,-0.0941,0.0424,0.1244
2878712,9.5816,3.225,-0.1006,-0.0405,0.0576,0.1785
2878736,9.7396,2.7174,-0.0287,-0.0213,0.0866,0.1556
2878760,10.0892,2.5283,0.1987,-0.0863,0.0485,0.0256
2878784,9.8976,2.8683,0.0958,-0.1287,-0.0242,-0.0765
2878808,9.5385,2.9521,-0.0838,-0.1164,-0.0336,-0.0626
2878832,9.3853,2.7845,-0.1006,-0.1164,-0.0208,-0.012
2878856,9.2775,2.7438,-0.0838,-0.1228,-0.0253,-0.0109
2878880,9.1004,2.9592,-0.2682,-0.1316,-0.0067,0.036
2878904,9.1746,3.0933,-0.2203,-0.1039,0.048,0.0661
2878928,9.256,2.9329,-0.17,-0.0847,0.0853,0.1007
2878952,9.4715,2.8228,-0.0215,-0.1023,0.1279,0.0917
2878976,9.9168,3.0574,0.2011,-0.0714,0.1079,0.0293
2879000,9.6965,2.8276,-0.0168,-0.029,0.0584,0.0338
2879024,9.5624,2.624,-0.0694,-0.0576,0.0935,-0.0013
2879048,9.7252,2.7797,0.0527,-0.0842,0.0978,-0.0288
2879072,9.6702,2.818,0.0742,-0.0946,0.0874,-0.0293
2879096,9.7229,2.7701,0.1484,-0.0991,0.0626,-0.0432
2879120,9.663,2.7605,0.079,-0.1103,0.0285,-0.0448
2879144,9.4499,2.7318,-0.0455,-0.1242,0.0181,-0.0205
2879168,9.402,2.7916,-0.0934,-0.1266,0.0389,-0.0136
2879192,9.6031,2.9568,0.0168,-0.1178,0.0514,-0.0139
2879216,9.6151,2.9066,0.0383,-0.1053,0.0421,-0.0125
2879240,9.4092,2.8443,-0.0766,-0.1119,0.0477,-0.0189
2879264,9.2823,2.6935,-0.0599,-0.1388,0.0983,-0.0032
2879288,9.3901,2.7246,0.0024,-0.1953,0.1625,-0.0195
2879312,9.6486,3.134,0.158,-0.202,0.1836,-0.0346
2879336,9.7971,3.1963,0.1245,-0.1236,0.1652,-0.0706
2879360,9.7468,2.8347,0.0072,-0.0997,0.1292,-0.0682
2879384,9.6845,2.7461,0.012,-0.1295,0.1186,-0.0616
2879408,9.9311,2.8371,0.2466,-0.142,0.0869,-0.0845
2879432,9.6367,2.8659,0.2203,-0.1455,0.0274,-0.0911
2879456,9.505,2.9257,0.2634,-0.1492,0.0408,-0.0885
2879480,9.5744,2.8635,0.4022,-0.1332,0.0213,-0.077
2879504,9.3901,2.9592,0.3232,-0.1266,-0.0069,-0.0426
2879528,9.0812,3.0789,0.1867,-0.1159,0.0147,-0.0035
2879552,9.0716,3.146,0.1652,-0.1018,0.0933,0.0405
2879576,9.6103,2.9688,0.3663,-0.0855,0.1199,0.0365
2879600,9.651,2.9018,0.3543,-0.1061,0.048,-0.02
2879624,9.1195,3.2202,0.0431,-0.1037,0.025,-0.0107
2879648,9.1171,3.1005,0.0599,-0.0733,0.1079,0.0602
2879672,9.5265,2.8946,0.2729,-0.0799,0.13,0.0861
2879696,9.6798,2.8874,0.2298,-0.0789,0.0682,0.0957
2879720,9.5505,2.8563,0.1844,-0.0885,0.0458,0.1282
2879744,9.4691,2.9018,0.182,-0.0919,0.0346,0.1871
2879768,9.4571,2.8347,0.103,-0.0791,0.0509,0.2182
2879792,9.5624,2.7438,0.0958,-0.0767,0.0706,0.2089
2879816,9.7707,2.7366,0.2729,-0.0845,0.0887,0.1212
2879840,10.0365,2.8946,0.4429,-0.085,0.0666,0.0506
2879864,10.0509,2.9042,0.4788,-0.0698,0.0192,0.0152
2879888,9.8138,2.727,0.4238,-0.0687,-0.0213,-0.033
2879912,9.5481,2.6336,0.3831,-0.0893,-0.0093,-0.0719
2879936,9.5553,2.7892,0.4501,-0.0997,0.0208,-0.0874
2879960,9.6031,2.9544,0.4717,-0.0496,0.0179,-0.0981
2879984,9.3733,2.6121,0.3567,-0.0336,0.0354,-0.065
2880008,9.4715,2.5067,0.3208,-0.0645,0.0629,-0.032
2880032,9.7348,2.5594,0.4142,-0.0719,0.0314,0.0344
2880056,9.6103,2.4062,0.3136,-0.0994,-0.004,0.0975
2880080,9.4978,2.715,0.2562,-0.1311,0.008,0.0541
2880104,9.6893,3.1891,0.3783,-0.0773,0.0237,-0.0075
2880128,9.6438,2.9497,0.328,-0.0309,0.0003,0.0266
2880152,9.5074,2.6695,0.2155,-0.0344,0.0258,-0.0032
2880176,9.7276,2.7294,0.3112,-0.0461,0.0357,-0.0176
2880200,9.7468,2.7246,0.2634,-0.0389,0.0136,-0.0005
2880224,9.754,2.6121,0.17,-0.0349,0.0117,0.0171
2880248,9.8713,2.6025,0.2394,-0.0501,0.0171,0.0093
2880272,9.9886,2.6935,0.3543,-0.0392,-0.0032,0.0008
2880296,9.8928,2.4349,0.3879,-0.0397,-0.0544,0.0205
2880320,9.5888,2.2889,0.3472,-0.0815,-0.0826,0.0152
2880344,9.3709,2.5331,0.3208,-0.1111,-0.0709,0.0181
2880368,9.3877,2.6911,0.3256,-0.101,-0.053,0.0576
2880392,9.3661,2.6671,0.3855,-0.1146,-0.0381,0.1247
2880416,9.268,2.873,0.3974,-0.1119,-0.0109,0.0653
2880440,9.3015,2.9904,0.4238,-0.0791,0.0131,0.0376
2880464,9.2225,2.8826,0.4118,-0.0546,0.0477,0.0019
2880488,9.2201,2.7869,0.2753,-0.0365,0.0861,-0.0218
